Count,AccX,AccY,AccZ,GyrX,GyrY,GyrZ,Activity
1,912,334,365,-183,-112,-65,0
2,852,358,358,-181,-146,-51,0
3,746,371,399,-154,-109,-24,0
4,741,359,416,-153,-55,-13,0
5,721,402,368,-189,-78,-20,0
6,709,385,388,-175,-83,-2,0
7,811,388,561,-213,-95,3,0
8,582,480,1114,-116,-117,30,0
9,348,281,1841,81,168,154,0
10,167,429,2842,283,489,208,0
11,3922,-1242,-3922,406,968,325,0
12,995,353,463,-153,-186,26,0
13,962,229,382,-118,-95,16,0
14,1003,226,316,-160,-69,-16,0
15,947,231,311,-183,-104,-34,0
16,863,279,348,-197,-87,-46,0
17,789,325,383,-152,-40,-48,0
18,852,285,294,-101,37,-47,0
19,1030,211,290,-68,79,-36,0
20,1129,197,299,-53,54,-25,0
21,990,206,223,-6,15,1,0
22,932,136,170,19,71,8,0
23,1064,102,164,28,79,8,0
24,1157,82,187,57,44,27,0
25,1163,27,251,66,10,30,0
26,1131,-33,287,7,-17,0,0
27,1068,6,336,-43,-30,-17,0
28,1002,23,345,-21,-12,-14,0
29,1007,-34,329,0,0,-17,0
30,1033,-77,316,3,-4,-18,0
31,988,-92,326,0,-22,-8,0
32,960,-115,319,1,5,7,0
33,1022,-96,307,3,32,30,0
34,1050,-53,286,2,11,47,0
35,1053,-21,271,-11,14,49,0
36,1041,48,230,-20,8,50,0
37,1040,102,201,-10,12,48,0
38,1074,108,175,0,7,34,0
39,1121,43,185,0,-5,16,0
40,1167,-12,235,-35,-28,-1,0
41,984,-12,246,-62,-71,-10,0
42,822,40,209,-65,-26,-11,0
43,857,94,105,-4,27,6,0
44,955,22,36,55,37,21,0
45,1043,-4,37,71,17,41,0
46,1095,17,97,40,-17,32,0
47,1069,29,164,0,-41,1,0
48,988,69,167,-22,-35,-22,0
49,983,113,152,-1,-3,-34,0
50,999,93,160,38,-7,-42,0
51,1019,11,180,56,-8,-51,0
52,990,-49,193,55,-14,-50,0
53,965,-79,161,40,2,-47,0
54,973,-31,126,36,11,-40,0
55,1008,-12,93,43,6,-45,0
56,982,-52,71,52,-11,-53,0
57,1020,-126,78,41,13,-58,0
58,1077,-133,86,24,7,-52,0
59,1024,-77,88,35,-1,-34,0
60,973,-47,69,70,10,-11,0
1,887,127,652,147,-78,-21,0
2,824,158,796,137,-35,-22,0
3,705,154,755,199,-16,-5,0
4,755,41,681,196,101,-2,0
5,934,-29,741,113,137,-22,0
6,884,-37,834,-8,43,-43,0
7,731,54,1020,-29,91,4,0
8,803,188,1424,3,265,56,0
9,836,324,1600,227,429,134,0
10,1132,-33,1374,440,696,224,0
11,3922,-1101,-3922,1031,-670,547,0
12,839,269,522,209,-124,-29,0
13,842,209,472,193,-68,-39,0
14,927,185,487,164,-35,-52,0
15,862,129,489,173,-46,-67,0
16,736,64,398,129,-8,-89,0
17,789,51,347,84,77,-107,0
18,912,-19,287,67,68,-121,0
19,971,-52,286,66,36,-100,0
20,941,-49,312,90,11,-34,0
21,976,-60,405,67,36,3,0
22,990,16,486,59,8,42,0
23,870,120,726,117,45,70,0
24,785,166,967,240,288,65,0
25,997,-9,1065,355,609,115,0
26,1702,-6,327,507,808,218,0
27,934,-112,-493,83,101,-1,0
28,462,-437,-1025,448,-378,-19,0
29,1188,-153,-484,-143,974,-44,0
30,2403,113,-184,-16,129,64,0
31,1274,167,-332,41,-536,17,0
32,1195,143,131,-108,-124,-76,0
33,1293,187,496,-50,-303,-128,0
34,929,2,332,-42,-307,-119,0
35,996,162,210,-69,-37,-112,0
36,1076,198,212,16,-145,-81,0
37,897,83,240,43,-160,-67,0
38,871,38,251,21,-97,-44,0
39,847,69,313,-23,-128,-25,0
40,767,130,413,-35,-81,-6,0
41,776,117,440,-27,-20,7,0
42,763,106,440,-53,-14,19,0
43,771,178,469,-78,21,32,0
44,801,265,451,-55,41,46,0
45,800,322,469,-8,75,68,0
46,843,354,513,5,119,62,0
47,944,363,568,-23,171,27,0
48,992,390,628,-33,196,17,0
49,944,443,1053,64,301,60,0
50,972,384,976,261,553,95,0
51,1427,82,544,328,680,134,0
52,1917,-188,-2300,-182,286,-55,0
53,363,-546,336,-278,-323,-139,0
54,864,430,-86,-568,328,-122,0
55,1700,675,-220,283,278,207,0
56,1386,-7,106,89,-423,16,0
57,1062,205,507,-70,-335,-89,0
58,931,136,761,-27,-243,-27,0
59,844,262,451,-37,-132,-25,0
60,996,269,313,-33,-12,-33,0
1,1033,445,913,-176,-319,-48,0
2,1050,191,932,86,-217,19,0
3,827,-19,857,86,-181,31,0
4,858,-14,688,-27,-24,14,0
5,896,189,657,-56,-82,7,0
6,785,184,642,-35,-121,6,0
7,724,153,654,-87,-122,-20,0
8,687,299,749,-149,-83,-42,0
9,1772,437,-232,365,485,210,0
10,2254,-1494,-1277,-101,77,190,0
11,493,-385,377,-442,-428,-352,0
12,762,126,544,-93,-113,-48,0
13,730,180,617,-111,-80,-39,0
14,717,255,637,-83,12,-29,0
15,735,229,592,-37,77,-14,0
16,775,214,536,-19,117,2,0
17,826,249,495,11,145,24,0
18,889,268,447,76,168,50,0
19,951,272,513,171,191,87,0
20,1033,202,555,273,267,149,0
21,1217,201,243,424,338,216,0
22,2840,451,-1767,570,254,251,0
25,1749,-534,-477,-151,128,43,0
26,1389,-76,1,-516,-344,-52,0
27,1250,384,135,-312,-258,4,0
28,1211,421,341,-151,-294,-31,0
29,996,278,402,4,-284,-33,0
30,904,140,415,24,-165,-5,0
31,788,228,454,39,-154,41,0
32,716,285,453,53,-73,38,0
33,723,201,421,79,-35,29,0
34,707,161,387,32,-16,16,0
35,720,203,396,-12,12,4,0
36,753,219,426,-37,33,-10,0
37,797,242,465,-57,49,-26,0
38,879,294,495,-44,81,-36,0
39,951,390,535,46,112,-29,0
40,982,374,553,176,164,-17,0
41,1069,219,514,282,263,-12,0
42,1179,81,407,320,317,-14,0
43,1570,10,-405,361,362,4,0
44,1730,-805,-2003,697,-113,492,0
45,294,-1060,-377,-290,-216,-289,0
46,1036,78,-12,77,580,-64,0
47,1627,-145,-104,-39,120,-50,0
48,1024,70,-29,-95,-190,-11,0
49,1176,51,41,-133,0,11,0
50,1203,192,271,-185,-285,-47,0
51,889,118,381,-154,-290,-63,0
52,852,95,371,-181,-158,-75,0
53,781,133,365,-197,-114,-61,0
54,789,216,351,-170,-25,-43,0
55,836,268,310,-101,-6,-29,0
56,832,257,271,-7,20,3,0
57,881,216,223,60,45,36,0
58,886,210,178,85,49,46,0
59,938,146,117,94,94,46,0
60,996,50,84,38,84,32,0
1,1152,1,-31,-71,-68,135,0
4,979,256,271,-127,-127,155,0
5,1036,312,326,-91,-93,174,0
6,1017,355,414,-65,-116,181,0
7,1024,444,465,-54,-82,156,0
8,916,396,470,-77,-81,96,0
9,3922,1008,-888,855,-872,587,0
10,692,-969,-614,923,-1254,54,0
11,658,-661,-624,-226,788,-131,0
12,961,338,303,73,31,-60,0
13,981,293,318,136,20,-47,0
14,935,241,329,169,19,-44,0
15,949,206,324,165,53,-56,0
16,961,199,291,147,70,-69,0
17,997,225,246,143,99,-78,0
18,1036,245,214,163,102,-85,0
19,1057,243,207,199,102,-89,0
20,1080,205,191,238,109,-92,0
21,1108,143,176,267,114,-90,0
22,1118,76,142,286,115,-83,0
23,1127,4,99,287,117,-71,0
24,1120,-54,65,268,106,-51,0
25,1113,-112,9,228,98,-32,0
26,1124,-162,-39,164,76,-21,0
27,1117,-204,-78,90,32,-11,0
28,1090,-198,-52,13,1,-7,0
29,1137,-212,-17,-83,-33,-2,0
30,1136,-148,58,-182,-82,15,0
31,1058,-1,117,-243,-119,33,0
32,1012,74,162,-260,-114,41,0
33,1040,72,205,-283,-134,35,0
34,1053,79,285,-315,-152,31,0
35,1064,127,337,-322,-149,39,0
36,1062,167,357,-301,-151,55,0
37,1037,183,365,-276,-145,69,0
38,1022,191,372,-266,-137,72,0
39,1003,205,382,-258,-132,72,0
40,1007,215,389,-248,-114,74,0
41,1043,225,398,-236,-101,76,0
42,1083,232,408,-224,-92,79,0
43,1085,238,418,-217,-91,79,0
44,1062,242,426,-218,-88,75,0
45,1023,262,435,-224,-83,65,0
46,974,283,428,-224,-66,53,0
47,942,304,412,-211,-39,43,0
48,921,319,381,-182,-19,42,0
49,917,314,345,-139,3,52,0
50,919,313,312,-95,11,66,0
51,932,296,290,-63,25,79,0
52,938,292,271,-53,32,84,0
53,964,308,257,-50,51,85,0
54,1026,335,254,-45,60,82,0
55,1054,361,245,-36,63,74,0
56,1029,393,232,-27,58,57,0
57,1000,404,217,-23,68,26,0
58,1036,391,192,-20,79,-14,0
59,1062,346,166,-12,72,-47,0
60,1051,305,152,-2,61,-64,0
1,1123,-147,-493,-74,53,18,0
2,1234,-50,-385,-107,15,38,0
3,1207,18,-271,-121,-78,42,0
4,1178,38,-156,-140,-145,46,0
5,1118,73,22,-177,-196,48,0
6,1046,191,200,-196,-210,41,0
7,932,240,271,-174,-188,31,0
8,875,302,242,-149,-122,13,0
9,467,103,1579,247,887,223,0
10,1930,-187,1188,175,1571,362,0
11,1264,1405,-2396,-763,116,-362,0
12,970,156,424,-206,-5,-162,0
13,1020,163,381,-115,-14,-110,0
14,912,141,347,-25,-35,-47,0
15,863,89,303,16,-7,0,0
16,820,57,275,3,-5,23,0
17,805,58,259,-28,18,40,0
18,831,73,242,-58,31,59,0
19,872,111,230,-71,41,86,0
20,977,140,239,-69,51,119,0
21,1072,168,246,-59,52,150,0
22,1161,212,260,-54,48,171,0
23,1196,249,284,-68,32,165,0
24,1184,275,305,-108,21,129,0
25,1107,283,302,-167,5,69,0
26,1056,308,298,-222,16,1,0
27,1055,303,281,-228,22,-35,0
28,1081,279,256,-196,17,-36,0
29,1076,250,244,-150,-7,-18,0
30,1010,212,231,-111,-19,10,0
31,969,163,221,-106,-19,29,0
32,974,141,247,-142,-19,28,0
33,1016,175,305,-180,-22,20,0
34,1041,218,340,-183,-24,27,0
35,1079,250,361,-163,-12,45,0
36,1084,302,369,-149,-20,50,0
37,1049,369,372,-131,-19,37,0
38,986,409,328,-95,-8,12,0
39,1049,341,299,-70,40,-24,0
40,1121,266,287,-68,-5,-56,0
41,872,244,287,-61,-45,-66,0
42,857,219,254,-51,38,-66,0
43,984,252,197,-32,59,-57,0
44,1141,337,128,29,84,-37,0
45,1252,346,97,112,59,-25,0
46,1279,280,105,149,0,-59,0
47,1220,139,107,114,-59,-130,0
48,1166,5,106,12,-75,-212,0
49,1133,-18,126,-77,-90,-260,0
50,1047,-26,121,-89,-99,-261,0
51,944,-106,104,-53,-82,-218,0
52,889,-163,66,-33,-68,-150,0
53,870,-217,35,-28,-45,-64,0
54,923,-198,36,-55,-43,10,0
55,950,-100,77,-82,-63,66,0
56,940,11,98,-99,-54,105,0
57,964,72,106,-106,-36,120,0
58,1020,77,129,-115,-41,129,0
59,1043,68,173,-130,-50,144,0
60,1058,97,219,-143,-44,164,0
1,376,-76,6,25,-16,-169,0
2,259,-188,-101,17,-33,-139,0
3,267,-246,-41,9,26,-93,0
4,579,-265,-29,-5,51,-44,0
5,1257,-127,61,-40,92,96,0
6,2030,1012,799,-237,117,179,0
7,2463,2750,1458,-42,-68,146,0
8,209,618,745,-132,184,104,0
9,1415,3579,2716,57,529,340,0
10,2384,3922,3158,95,748,-10,0
11,1484,2286,2096,97,-134,-463,0
12,1959,1692,1904,-203,57,419,0
13,2367,3922,2796,-29,-108,627,0
14,956,2525,1669,-76,-537,-291,0
15,-281,1480,825,-88,38,-154,0
16,1,528,238,273,360,82,0
17,-178,-39,35,231,126,76,0
18,-223,-31,-77,142,304,106,0
19,-4,62,-242,148,289,128,0
20,-20,118,-271,220,192,152,0
21,-6,18,-235,253,166,154,0
22,-24,93,-81,189,93,108,0
23,-60,401,251,185,45,57,0
24,-156,546,912,277,32,43,0
25,58,954,1910,177,226,9,0
26,1225,3922,3057,129,846,366,0
27,2238,3922,2914,406,603,166,0
28,816,1403,2350,321,-484,-296,0
29,373,566,1404,205,489,-246,0
30,1093,107,1058,383,863,49,0
31,901,-78,577,312,284,6,0
32,504,-424,343,278,384,10,0
33,456,-573,32,41,366,-48,0
34,276,-443,-33,-121,223,-42,0
35,301,-255,40,-114,183,32,0
36,409,-142,168,-19,39,109,0
37,540,-22,222,83,58,202,0
38,1051,625,297,129,169,287,0
39,1807,1504,704,190,229,337,0
40,2309,2051,1462,67,-4,263,0
41,1808,2995,1321,-125,-435,-80,0
42,856,2312,743,129,-230,-67,0
43,529,1225,274,142,55,-116,0
44,296,733,-148,170,-45,-55,0
45,-86,356,-385,96,-203,-86,0
46,-580,-87,-194,0,-144,-78,0
47,-624,-97,-75,-53,52,-76,0
48,-579,-282,116,-11,1,-66,0
49,-706,-338,281,-44,7,-51,0
50,-412,-151,413,-100,221,-31,0
51,-45,274,601,5,292,-53,0
52,877,1220,1008,110,654,82,0
53,2509,3922,2751,116,1353,416,0
54,3781,3922,2166,203,150,-335,0
55,1154,1380,1683,291,-720,-277,0
56,270,456,976,197,52,-246,0
57,656,-217,490,227,420,-165,0
58,746,-539,202,153,199,-142,0
59,668,-684,-48,118,194,-74,0
60,768,-880,-322,134,98,-26,0
1,522,2370,1971,-92,550,219,0
2,2284,3922,3156,93,1252,721,0
3,2231,3435,2060,360,-319,-200,0
4,552,609,1434,116,-540,-391,0
5,186,571,716,49,600,-245,0
6,938,-99,249,246,604,-96,0
9,58,778,461,169,296,185,0
10,119,364,222,326,303,208,0
11,-12,12,-4,317,301,180,0
12,806,311,803,176,-77,-265,0
13,532,95,361,83,219,-238,0
14,551,-177,108,73,297,-133,0
15,479,-231,-77,17,207,-58,0
16,373,-130,-186,21,148,22,0
17,336,-44,-217,61,116,68,0
18,394,-77,-222,88,73,92,0
19,396,-51,-147,45,-52,62,0
20,473,47,-9,17,-52,50,0
21,998,536,217,13,52,73,0
22,1903,1252,875,10,190,128,0
23,2176,2467,2083,-161,-181,72,0
24,1289,3107,1388,-197,-632,-62,0
25,406,1831,808,-99,-308,-148,0
26,13,937,350,-96,-82,-147,0
27,-179,429,-75,25,-36,-78,0
28,-303,15,-257,49,53,-24,0
29,-165,-28,-350,31,60,37,0
30,-172,132,-209,-2,-43,10,0
31,-205,77,-104,24,-9,-3,0
32,-193,66,-40,42,-22,-28,0
33,-217,5,75,68,14,-38,0
34,-4,204,239,14,131,-26,0
35,379,1418,1051,-124,128,9,0
36,1135,3922,2363,35,438,292,0
37,1635,3807,1765,81,94,-177,0
38,418,1437,1305,-2,-417,-333,0
39,23,843,894,72,494,-194,0
40,857,155,419,245,682,-69,0
41,654,-213,183,239,240,-53,0
42,437,-430,-50,240,358,-11,0
43,689,-633,-319,153,360,0,0
44,674,-538,-394,-2,77,-30,0
45,658,-322,-256,-43,-38,-31,0
46,670,-214,-9,-31,-217,-27,0
47,882,-185,269,15,-211,6,0
48,1832,756,1691,-143,3,164,0
49,1679,3922,3140,-235,-590,416,0
50,604,3922,2026,-87,-756,-121,0
51,23,1571,938,2,63,-140,0
52,382,514,202,143,316,18,0
53,278,16,-160,103,-58,70,0
54,-94,-25,-205,32,-26,150,0
55,24,113,-308,12,91,169,0
56,20,126,-317,43,-45,142,0
57,-186,57,-253,58,-98,116,0
58,-277,16,-216,37,-78,95,0
59,-510,188,-125,1,-159,40,0
60,-707,538,229,26,-88,16,0
1,1377,3641,1706,-126,-167,243,0
2,695,3320,1134,-61,-367,-95,0
3,59,1569,658,-8,-38,-58,0
4,54,963,195,34,162,36,0
5,25,503,-105,23,56,30,0
6,-108,326,-158,40,98,71,0
7,61,214,-231,46,143,41,0
8,23,-57,-248,85,-50,-21,0
9,681,-139,285,166,315,-58,0
10,648,-596,-64,114,259,-70,0
11,595,-786,-335,19,177,-51,0
12,-147,-87,-98,89,216,36,0
13,-195,-54,-128,-30,0,69,0
14,-430,204,-3,61,-53,117,0
15,-515,97,79,151,2,111,0
16,-451,16,126,102,65,70,0
17,-396,166,234,31,107,8,0
18,-292,395,362,80,183,-3,0
19,-70,616,525,112,242,-4,0
20,434,2357,1250,38,373,19,0
21,1546,3922,2006,217,826,337,0
22,2208,3628,1607,133,195,-213,0
23,716,1148,1276,46,-506,-434,0
24,152,458,804,35,302,-285,0
25,830,-236,397,134,701,-146,0
26,780,-519,68,65,173,-137,0
27,272,-574,-96,79,166,-37,0
28,468,-573,-300,51,359,12,0
29,562,-538,-350,19,74,33,0
30,380,-499,-230,-21,-15,64,0
31,469,-282,-64,-62,-64,105,0
32,611,386,200,20,-47,182,0
33,1670,1672,889,98,338,372,0
34,2482,3775,1977,-119,5,525,0
35,1045,3922,1721,-228,-903,-203,0
36,-383,1988,1143,46,-252,-186,0
37,87,739,371,238,569,25,0
38,359,31,-104,242,85,13,0
39,-274,-292,-152,81,-38,-47,0
40,-90,-182,-230,-16,221,-15,0
41,56,0,-141,40,-32,18,0
42,-264,-37,-5,104,-24,34,0
43,-147,-191,-56,78,27,28,0
44,-91,34,45,25,-13,32,0
45,109,628,265,-7,21,71,0
46,553,2249,1098,-57,163,99,0
47,1231,3922,2025,-26,442,148,0
48,1617,3695,1285,140,89,-178,0
49,525,1014,1022,152,-332,-316,0
50,103,419,680,85,300,-224,0
51,543,-66,320,98,461,-126,0
52,544,-269,61,81,292,-72,0
53,504,-386,-217,88,311,-3,0
54,600,-452,-407,63,252,33,0
55,635,-423,-442,-2,79,50,0
56,466,-183,-327,-33,-88,51,0
57,507,1,-152,25,-99,93,0
58,902,352,210,66,-88,180,0
59,1630,1765,1152,14,79,296,0
60,2024,3525,1646,-16,-78,319,0
1,359,-236,2,84,229,-38,0
2,407,-330,-150,82,225,-10,0
3,408,-394,-244,28,118,12,0
4,329,-231,-252,-9,38,46,0
5,195,282,-324,139,38,48,0
6,49,173,-297,70,2,0,0
7,-29,31,-173,-5,-56,-66,0
8,-190,-74,-29,-70,-74,-108,0
9,-130,8,66,-71,23,-84,0
10,90,507,166,12,33,16,0
11,469,1643,523,58,130,146,0
12,390,-1,-98,-21,-121,62,0
13,553,130,-29,52,-122,110,0
14,1137,635,334,17,-73,202,0
15,1632,2603,1403,-119,-50,305,0
16,1565,3922,1217,-125,-279,97,0
17,845,2524,683,-22,-276,-119,0
18,255,1028,406,22,-210,-109,0
19,-41,443,148,52,-78,-34,0
20,-70,138,39,0,59,-9,0
21,-1,162,5,-49,17,2,0
22,-52,264,36,-18,-26,11,0
23,-42,252,21,43,5,37,0
24,-40,143,-19,65,-9,25,0
27,94,762,188,-42,49,2,0
28,298,1550,557,-74,85,11,0
29,909,3590,1203,-73,361,68,0
30,1511,3846,1204,100,229,-100,0
31,660,1696,1014,109,-272,-280,0
32,187,943,713,103,222,-184,0
33,622,361,348,163,369,-93,0
34,448,-18,177,134,118,-80,0
35,336,-303,44,80,213,-34,0
36,449,-312,-142,9,197,-1,0
37,494,-135,-239,16,108,44,0
38,534,-131,-244,43,-16,59,0
39,438,-181,-85,17,-138,59,0
40,526,69,68,-1,-129,79,0
41,846,414,293,10,-90,132,0
42,1514,1885,1059,-105,23,178,0
43,1620,3751,1287,-43,-297,282,0
44,846,2850,786,-78,-417,-55,0
45,291,1565,405,-100,-142,-103,0
46,128,923,90,-12,-77,-50,0
47,-1,387,-116,53,-60,-16,0
48,-77,48,-209,41,-43,2,0
49,-89,-39,-206,-9,-52,-1,0
50,-137,0,-167,-36,-83,-33,0
51,-182,-14,-127,0,-83,-34,0
52,-76,-6,-9,8,-66,-29,0
53,-35,293,228,-9,-100,-4,0
54,207,1516,842,-8,38,81,0
55,1035,3684,1610,139,317,307,0
56,1317,3300,1306,47,-44,-62,0
59,474,549,284,138,296,-53,0
60,359,168,117,195,191,-30,0
1,-313,175,-22,-79,-55,-14,0
2,-399,162,166,-1,-77,-20,0
3,-358,190,183,46,14,-2,0
4,-75,332,170,-3,102,-12,0
5,192,703,330,-116,62,-41,0
6,411,2014,862,-166,100,-17,0
7,1444,3922,1487,75,814,193,0
8,2530,3202,1226,217,317,-175,0
9,1103,1212,1012,153,-610,-362,0
10,1550,1571,921,-32,-18,229,0
11,1804,3922,1888,-55,-177,534,0
12,-432,1631,802,47,81,148,0
13,255,3922,1534,124,344,126,0
14,1300,3922,1658,65,554,-58,0
15,953,2727,1464,91,-16,-319,0
16,414,931,1231,104,256,-323,0
17,937,301,857,200,877,-157,0
18,1453,-395,367,246,687,-61,0
19,1172,-707,51,166,428,21,0
20,1063,-841,-201,10,448,75,0
21,1072,-545,-401,-153,248,50,0
22,868,-330,-425,-152,-30,44,0
23,729,-286,-284,-104,-201,71,0
24,776,-136,3,-82,-343,112,0
25,981,451,526,-32,-373,214,0
26,1409,1722,1445,-117,-236,357,0
27,1667,3922,2590,-265,-94,409,0
28,922,3741,1524,-60,-696,-211,0
29,-238,1551,1083,-54,-636,-266,0
30,-769,969,637,125,240,-99,0
31,-37,263,161,303,603,28,0
32,271,-234,-12,188,305,-23,0
33,255,-122,-185,46,135,-19,0
34,23,79,-201,100,-9,-18,0
35,-305,-158,-90,237,-34,-5,0
36,-361,-371,4,73,124,-6,0
37,-180,-18,42,-15,115,14,0
38,61,586,172,-74,129,60,0
39,542,3420,1752,-234,406,25,0
40,1720,3922,1800,230,732,148,0
41,1412,2615,1370,375,160,-151,0
42,659,808,995,168,-192,-338,0
43,360,342,540,61,176,-321,0
44,477,-205,363,149,514,-127,0
45,688,-514,191,18,391,-107,0
46,438,-146,1,75,131,30,0
47,450,-137,-36,160,279,105,0
48,721,-212,-110,135,167,84,0
49,530,-295,-76,42,-94,15,0
50,537,-403,-73,-61,-35,7,0
51,770,-88,69,-121,-119,38,0
52,1103,720,471,-121,-187,155,0
53,1321,3156,1539,-112,-187,305,0
54,1260,3922,1332,-117,-312,118,0
55,191,2456,823,-136,-486,-187,0
56,-326,1260,417,16,-65,-93,0
57,-165,421,42,125,165,-15,0
58,-81,-31,-129,79,52,8,0
59,-195,-133,-142,7,-3,16,0
60,-127,-233,-178,-3,43,34,0
1,1216,307,350,58,-37,83,0
2,1535,3716,1757,31,-133,608,0
3,1649,3922,1336,-17,16,247,0
4,850,2269,752,-47,-380,-180,0
5,-292,705,547,-36,-326,-123,0
6,-344,311,141,59,208,11,0
7,651,1553,1164,52,-45,-367,0
8,600,910,844,112,381,-239,0
9,689,382,559,145,282,-207,0
10,540,0,350,157,305,-156,0
11,588,-190,118,124,306,-113,0
12,-105,928,235,55,-212,10,0
13,-363,479,66,116,86,56,0
14,39,366,-148,100,202,76,0
15,-42,303,-158,86,-13,59,0
16,-43,222,-138,63,51,50,0
17,-61,158,-76,20,-59,9,0
18,-271,82,75,4,-63,-8,0
19,-314,199,219,8,-39,-11,0
20,-268,485,380,30,43,38,0
21,64,1442,807,-54,148,75,0
22,532,3922,1561,-37,315,82,0
23,1282,3922,1418,137,493,-123,0
24,1228,2138,1115,212,137,-322,0
25,878,1171,792,192,241,-302,0
26,960,450,504,254,342,-239,0
27,908,-48,265,237,261,-243,0
28,797,-439,50,217,262,-163,0
29,689,-704,-169,104,170,-118,0
30,580,-743,-284,-22,100,-73,0
31,569,-579,-292,-103,-4,-2,0
32,487,-286,-159,-83,-118,79,0
33,630,-38,-40,18,-109,192,0
34,1046,261,243,56,-89,336,0
35,1562,1641,917,0,-32,500,0
36,1741,2887,1029,-229,-202,341,0
37,1060,3009,837,-266,-332,84,0
38,449,2183,548,-50,-156,87,0
39,30,1105,313,62,-191,81,0
40,-259,692,177,42,-3,65,0
41,-126,532,37,36,177,73,0
42,-25,542,-68,55,100,75,0
43,-52,591,-96,76,83,73,0
44,-47,532,-84,67,36,33,0
45,-143,419,-1,35,-27,-20,0
46,-141,389,127,-1,-16,-62,0
47,86,709,293,12,32,-39,0
48,451,1341,566,53,78,29,0
49,895,2550,813,45,261,97,0
50,1752,3416,783,49,506,-54,0
51,1749,2154,571,149,-63,-296,0
52,712,963,541,77,-232,-382,0
53,594,695,343,58,224,-321,0
54,902,385,166,110,182,-300,0
55,693,26,109,129,30,-260,0
56,661,-216,32,97,119,-188,0
57,722,-372,-43,57,40,-107,0
58,640,-479,-24,-19,-70,-36,0
59,563,-413,42,-87,-134,70,0
60,457,-124,140,-100,-172,183,0
1,1125,813,22,-156,-143,-139,0
2,925,519,168,-99,-114,-186,0
3,775,403,427,-171,-105,-184,0
4,577,437,681,-183,-164,-174,0
5,615,402,1068,-55,-117,-124,0
6,368,199,1374,148,-246,-19,0
7,222,-62,1467,192,-127,127,0
8,268,-55,1736,-50,254,102,0
9,411,524,1969,-24,624,125,0
10,1059,492,1560,221,1066,315,0
11,2641,1397,-669,-306,-647,-395,0
12,662,503,567,91,-157,17,0
13,670,470,484,97,-13,-41,0
14,844,386,478,100,60,-87,0
15,937,291,504,111,42,-112,0
16,863,187,545,115,-17,-118,0
17,738,94,556,75,12,-113,0
18,704,87,544,22,65,-95,0
19,684,108,587,-3,98,-55,0
20,766,225,583,-16,171,-14,0
21,830,345,679,73,199,47,0
22,848,347,839,208,266,118,0
23,843,240,904,317,451,179,0
24,1287,225,508,404,631,255,0
25,3922,495,-1485,481,99,518,0
26,1471,-740,175,248,-262,57,0
27,576,64,584,-304,-247,-223,0
28,1004,653,249,94,335,81,0
29,1423,263,129,375,282,281,0
30,1203,159,217,190,-217,97,0
31,914,114,260,144,-173,79,0
32,984,174,398,4,-77,20,0
33,942,197,386,-31,-154,-8,0
34,950,238,358,-40,-69,9,0
35,1031,288,396,-23,-79,24,0
36,976,290,474,-15,-135,14,0
37,917,253,545,-23,-116,2,0
38,902,254,608,-55,-87,-6,0
39,818,360,638,-73,-80,-20,0
40,796,427,585,-24,-7,-21,0
41,905,518,585,63,48,-6,0
42,949,503,602,225,39,37,0
43,892,321,574,287,20,35,0
44,828,179,535,216,46,-6,0
45,929,169,504,95,98,-59,0
46,995,209,494,32,72,-88,0
47,978,180,426,17,51,-91,0
48,1001,90,467,-25,74,-88,0
49,1048,208,484,-54,12,-75,0
50,750,263,697,53,-27,-16,0
51,656,72,709,99,278,35,0
52,2342,-1067,-3922,203,364,266,0
53,1591,-443,-240,-310,144,-447,0
54,693,519,452,-196,-490,-81,0
55,734,320,93,119,151,159,0
56,1379,272,-2,133,363,145,0
57,1430,225,163,105,-251,98,0
58,1016,179,313,43,-331,65,0
59,975,221,512,-22,-167,46,0
60,887,241,487,-62,-200,16,0
1,797,272,450,-118,-261,-64,0
2,790,223,435,-87,-111,-39,0
3,832,317,536,-85,-140,-52,0
4,716,345,596,2,-157,-43,0
5,694,202,578,68,-50,-19,0
6,773,132,568,49,-23,5,0
7,676,244,662,16,-41,-8,0
8,675,154,789,4,121,-6,0
9,693,282,1154,13,272,15,0
10,764,241,993,168,517,100,0
11,3922,-371,-3922,322,427,255,0
12,790,320,392,-12,-60,-35,0
13,772,324,377,41,12,-35,0
14,859,253,309,87,72,-22,0
15,893,201,288,90,71,-15,0
16,891,201,278,81,89,-8,0
17,931,240,221,71,114,-8,0
18,930,257,170,78,119,-13,0
19,996,227,129,79,154,-18,0
20,1086,246,38,78,143,-21,0
21,1138,219,-22,104,123,-13,0
22,1159,284,-178,127,73,-12,0
23,1281,136,-616,230,84,32,0
24,1360,-222,-743,54,56,-34,0
25,1202,144,-245,-144,-41,-123,0
26,1074,133,-121,-15,-107,-20,0
27,1079,151,23,-43,-85,-6,0
28,1027,149,169,-43,-150,27,0
29,918,198,262,-56,-115,48,0
30,919,259,291,-71,-63,48,0
31,925,301,305,-61,-58,44,0
32,935,299,367,-42,-38,47,0
33,938,338,399,-26,-35,50,0
34,883,374,407,1,-17,51,0
35,857,359,413,15,21,48,0
36,883,364,428,-29,55,22,0
37,904,431,440,-71,61,-26,0
38,922,458,502,-53,81,-56,0
39,929,432,572,3,78,-76,0
40,852,353,612,71,83,-80,0
41,835,185,563,119,170,-43,0
42,903,181,636,78,218,-11,0
43,836,265,531,80,265,12,0
44,1265,423,-132,220,449,102,0
45,3549,127,-3088,249,338,356,0
46,969,-102,667,-159,-395,-200,0
47,600,506,461,112,-246,-18,0
48,1086,410,155,245,374,118,0
49,1462,163,27,212,58,79,0
50,1075,103,165,76,-275,13,0
51,926,147,284,-1,-127,12,0
52,975,193,416,-56,-167,-10,0
53,795,218,449,-87,-161,-30,0
54,864,232,429,-98,-45,-13,0
55,910,294,507,-99,-102,-14,0
56,870,334,607,-80,-82,-13,0
57,824,383,656,-57,-72,-21,0
58,731,368,665,0,-17,-22,0
59,836,282,655,34,90,-22,0
60,848,260,644,39,66,-27,0
1,703,222,719,2,-109,-33,0
2,681,222,792,-26,-46,-41,0
3,647,242,778,-28,-2,-45,0
4,668,208,759,-22,46,-46,0
5,675,192,885,-2,77,-29,0
6,682,154,1014,52,154,12,0
7,649,127,1227,107,231,62,0
8,556,118,1460,255,445,148,0
9,786,-24,1657,295,765,181,0
10,3922,-240,-3922,471,-1140,462,0
11,-356,-1163,-705,0,115,-312,0
12,777,204,591,-49,-96,-40,0
13,757,178,624,-63,-128,-7,0
14,736,274,675,-52,-68,24,0
15,786,287,758,-29,26,33,0
16,730,393,702,29,51,15,0
17,815,221,582,94,186,17,0
18,991,214,539,91,197,30,0
19,861,258,774,111,174,45,0
20,906,212,653,141,362,51,0
21,1181,238,466,171,421,102,0
22,3844,-102,-3922,310,27,240,0
23,1071,-871,198,-3,-95,-176,0
24,667,318,588,-437,-574,-281,0
25,698,511,361,88,46,75,0
26,1228,325,198,77,175,60,0
27,1148,178,262,59,-241,23,0
28,893,211,376,-8,-202,0,0
29,952,240,473,-15,-133,5,0
30,860,249,469,-46,-165,-27,0
31,840,258,423,-51,-45,-22,0
32,931,286,419,-30,-39,-7,0
33,868,294,426,-7,-79,-5,0
34,846,288,456,14,-39,1,0
35,828,280,460,16,-33,-7,0
36,794,280,465,26,7,-10,0
37,850,254,439,44,68,-4,0
38,893,264,429,58,79,2,0
39,885,270,407,87,91,15,0
40,928,237,368,112,126,25,0
41,951,227,359,101,134,20,0
42,952,228,322,91,169,21,0
43,1035,241,270,71,210,28,0
44,1253,285,-65,15,197,17,0
45,2172,-77,-1557,-217,200,47,0
46,1150,740,311,-44,-274,-164,0
47,740,73,240,106,-68,-5,0
48,1102,278,180,62,161,33,0
49,1168,261,104,-42,-59,-27,0
50,1038,290,209,-20,-87,-33,0
51,1067,275,287,11,-138,-18,0
52,932,224,382,37,-193,6,0
53,869,193,426,29,-136,23,0
54,868,205,436,-2,-111,26,0
55,859,260,463,-25,-80,19,0
56,864,311,447,-25,-47,8,0
59,902,310,345,33,19,-11,0
60,908,262,298,42,54,-14,0
1,862,708,462,-68,-35,-196,0
2,862,539,436,27,-65,-211,0
3,747,339,445,99,-123,-178,0
4,660,164,460,118,-93,-149,0
5,723,37,482,114,-15,-101,0
6,759,-108,609,74,-8,-82,0
7,536,-198,1030,107,-20,-75,0
8,282,-553,1343,294,195,197,0
9,227,-275,2184,299,529,383,0
10,1134,-416,2555,578,1440,381,0
11,3922,-422,-3018,258,610,153,0
12,952,428,393,-115,-20,-10,0
13,932,419,384,19,6,14,0
14,953,365,355,131,40,33,0
15,995,280,290,194,64,31,0
16,1037,212,236,227,68,21,0
17,1046,153,204,231,64,6,0
18,1076,118,154,228,71,7,0
19,1237,54,-120,319,48,83,0
20,1162,-280,-109,343,-86,111,0
21,998,-277,93,153,-50,2,0
22,1035,-260,95,63,24,-34,0
23,1070,-72,127,-16,14,-53,0
24,1074,30,94,-62,2,-59,0
25,1093,107,160,-63,-23,-59,0
26,1061,215,168,-16,-77,-34,0
27,1004,155,217,66,-79,-2,0
28,969,113,250,64,-72,-14,0
29,1003,141,198,66,-46,-15,0
30,1065,289,161,137,-74,0,0
31,1106,232,170,305,-128,76,0
32,1100,-11,73,302,-198,94,0
33,1038,-38,-7,164,-239,25,0
34,997,47,-19,125,-205,0,0
35,1025,27,-146,161,-203,25,0
36,969,-74,-230,134,-242,4,0
37,901,-195,-213,33,-178,-17,0
38,972,-43,-324,5,-160,3,0
39,734,-111,-276,12,-199,11,0
40,662,-173,-282,-68,-42,-8,0
41,748,-104,-348,-107,7,3,0
42,657,-71,-316,-81,10,12,0
43,663,-114,-254,-95,115,8,0
44,783,-86,-263,-128,167,11,0
45,766,-98,-238,-137,172,28,0
46,774,0,-102,-175,264,-1,0
47,893,31,19,-160,361,-13,0
48,1048,14,51,-165,370,-19,0
49,1156,-5,-6,-201,267,-17,0
50,1169,107,4,-191,162,3,0
51,1183,76,47,-127,96,65,0
52,1146,51,80,-146,33,78,0
53,1098,125,160,-210,32,52,0
54,1084,254,197,-234,42,18,0
55,1066,343,193,-206,38,-6,0
56,1067,367,192,-137,40,-14,0
57,1090,346,186,-72,27,-14,0
58,1076,318,176,-20,-12,-15,0
59,1034,250,165,-4,-14,-24,0
60,1067,188,62,-16,-32,-34,0
1,749,801,339,70,24,-202,0
2,527,379,298,95,60,-212,0
3,414,123,274,119,150,-161,0
4,391,15,99,152,191,-93,0
5,378,-82,-43,199,181,-43,0
6,400,-359,-181,188,131,-32,0
7,562,-555,-353,60,5,-25,0
8,563,-299,-304,-36,-231,-4,0
9,897,-330,-14,6,-86,113,0
10,1787,-13,801,-183,179,306,0
11,2610,3462,2170,-528,25,127,0
12,263,893,573,-116,244,120,0
13,1389,3646,1539,36,768,254,0
14,2806,3829,1576,118,824,138,0
15,1614,1939,1122,163,-383,-259,0
16,310,680,846,97,-237,-280,0
17,238,436,586,204,496,-121,0
18,746,-110,257,295,523,-27,0
19,646,-375,30,241,206,-36,0
20,398,-586,-162,165,204,-9,0
21,469,-641,-382,8,193,-20,0
22,435,-370,-285,-91,-31,-28,0
23,465,-28,-64,-12,-47,42,0
24,685,32,71,141,-83,149,0
25,1571,327,495,-7,169,254,0
26,2482,2519,2116,-277,132,255,0
27,1911,3922,1873,-229,-635,8,0
28,326,1942,1106,-111,-571,-308,0
29,-90,1005,480,80,266,-68,0
30,315,353,-19,221,189,66,0
31,-113,93,-138,206,-43,62,0
32,-266,-109,-301,153,191,80,0
33,35,-28,-495,121,267,92,0
34,-19,-65,-458,98,23,109,0
35,-413,190,-112,72,-42,91,0
36,-550,419,192,119,86,72,0
37,-396,663,622,93,173,56,0
38,119,2510,1588,183,323,230,0
39,1116,3922,2093,372,804,257,0
40,1801,2607,1759,328,409,-198,0
41,928,1302,1371,275,88,-290,0
42,825,380,1059,292,425,-168,0
43,930,-101,846,244,346,-139,0
44,794,-458,570,143,307,-127,0
45,695,-676,270,3,260,-101,0
46,706,-505,61,-91,234,-81,0
47,746,-359,-62,-26,113,25,0
48,735,-326,-135,94,21,176,0
49,753,-210,-101,128,-40,245,0
50,802,-15,26,108,-167,254,0
51,1157,653,471,106,-64,327,0
52,1946,1938,1198,46,116,452,0
53,2048,3922,1044,-325,-74,93,0
54,1052,3536,829,-187,-235,-253,0
55,288,1653,407,183,-148,-96,0
56,28,309,26,225,-5,-41,0
57,-67,-8,-226,40,98,-101,0
58,-59,-48,-325,-14,86,-56,0
59,-67,37,-250,57,19,42,0
60,-162,22,-140,115,-41,95,0
1,943,-255,-33,25,-58,84,0
2,972,-285,85,-44,-165,33,0
3,1172,-493,482,-126,-194,-2,0
4,1708,-137,1365,-338,-244,102,0
5,1770,2947,2526,-299,-233,451,0
6,1190,3922,1761,3,-175,171,0
7,1234,1748,531,-141,70,-177,0
8,162,910,316,-68,-435,-145,0
9,-545,326,122,5,-36,-16,0
10,347,692,1650,401,74,-282,0
11,758,-179,1032,365,444,-212,0
12,290,3379,1313,-141,-55,-129,0
13,326,1520,349,20,15,-97,0
14,-238,677,25,133,-221,-27,0
15,-359,151,-218,96,182,7,0
16,143,10,-480,23,160,17,0
17,-15,61,-454,17,-30,10,0
18,5,-6,-374,42,-40,14,0
19,-128,-56,-278,35,-144,16,0
20,-246,34,-193,-5,-79,8,0
21,-204,50,-44,-132,-66,-59,0
22,225,2016,898,-209,91,-2,0
23,644,3922,2445,257,189,402,0
24,1098,3922,2273,229,139,-172,0
25,750,1830,1601,127,84,-437,0
26,410,692,1140,281,210,-255,0
27,571,-118,803,300,433,-141,0
28,700,-355,530,216,363,-98,0
29,695,-416,381,149,351,-60,0
30,847,-500,104,101,319,-46,0
31,783,-684,-116,47,145,-38,0
32,732,-759,-210,-51,70,-40,0
33,757,-661,-204,-131,-77,-33,0
34,831,-471,-56,-122,-118,54,0
35,1505,7,493,-118,-94,304,0
36,1737,3151,2325,-268,-156,491,0
37,1061,3922,1967,-202,-592,43,0
38,2,2715,1152,-215,-187,-253,0
39,17,1674,384,105,166,23,0
40,-26,574,-71,222,-44,23,0
41,-270,-13,-241,113,97,-10,0
42,60,-27,-445,0,198,18,0
43,74,134,-457,40,-2,54,0
44,-24,23,-371,117,-44,76,0
45,-134,-115,-256,93,-114,60,0
46,-296,-181,-123,24,-111,25,0
47,-377,-51,49,-43,-85,21,0
48,-386,745,735,-122,5,155,0
49,390,3922,2342,27,511,383,0
50,1700,3922,2524,335,873,166,0
51,1791,2520,1606,339,50,-241,0
52,593,824,1177,270,-139,-333,0
53,466,152,795,200,387,-290,0
54,870,-223,428,159,386,-208,0
55,737,-317,258,130,228,-120,0
56,686,-346,83,105,190,-69,0
57,618,-416,-75,75,106,-70,0
58,549,-491,-172,14,51,-87,0
59,581,-474,-190,-43,-10,-90,0
60,592,-348,-144,-40,-110,-32,0
1,1102,3922,2167,225,552,470,0
2,1285,3518,1671,318,56,-53,0
3,524,1141,1104,95,-202,-339,0
4,103,838,851,-53,166,-352,0
5,424,376,629,187,596,-92,0
6,764,-15,354,269,468,21,0
7,623,-337,146,231,230,15,0
8,15,800,115,85,-120,-62,0
9,-83,254,-107,117,31,-15,0
10,-33,19,-263,48,76,8,0
11,-57,-17,-347,15,-5,32,0
12,855,13,474,244,721,-18,0
13,1056,-346,164,261,346,-46,0
14,941,-842,-111,199,222,-74,0
15,1225,-1288,-272,-55,262,-110,0
16,1579,-644,-109,-182,-111,-80,0
17,1537,-562,157,-28,-390,77,0
18,1824,335,1592,-205,-335,304,0
19,1237,3922,2933,-339,-771,471,0
22,183,1147,148,132,591,113,0
23,253,568,-251,137,-61,28,0
24,-331,384,-151,82,-130,-10,0
25,-200,284,-153,36,146,-35,0
26,-16,267,-113,25,19,-59,0
27,-210,377,0,42,-2,-68,0
28,-115,415,-13,109,81,-67,0
29,-93,388,-17,157,49,-70,0
30,-46,413,37,125,60,-69,0
31,52,970,337,70,27,-38,0
32,357,2599,1108,132,180,90,0
33,981,3922,1573,204,365,36,0
34,1367,2766,1252,223,245,-183,0
35,851,1221,963,109,-20,-318,0
36,448,768,679,88,167,-230,0
37,513,377,453,118,355,-149,0
38,552,92,252,123,332,-100,0
39,510,-66,112,107,331,-50,0
40,583,-13,-1,77,358,-4,0
41,575,124,-106,74,238,5,0
42,462,77,-142,102,174,9,0
43,519,-80,-200,87,155,22,0
44,522,-143,-242,28,38,29,0
45,495,-80,-252,-13,-55,42,0
46,951,39,-154,-76,20,143,0
47,1535,1274,724,-242,-70,270,0
48,1626,3279,1606,-229,-311,384,0
49,1216,3284,995,-165,-456,147,0
50,391,1529,661,-285,-472,-168,0
51,-219,904,481,-311,-351,-187,0
52,-530,484,285,-127,-86,-65,0
53,-421,165,106,-14,82,73,0
54,-355,154,33,2,47,153,0
55,-333,354,-27,12,73,169,0
56,-169,475,-59,49,125,153,0
57,-47,509,-26,48,93,128,0
58,-49,693,84,15,50,86,0
59,-32,1118,338,57,87,108,0
60,349,2035,696,71,247,122,0
1,1818,3689,2120,-228,-211,303,0
2,1249,3121,1262,-49,-485,10,0
3,497,1534,731,-143,-278,-126,0
4,110,1263,325,-104,-128,-92,0
5,-48,741,-16,55,-64,-55,0
6,-102,138,-116,52,58,-62,0
7,20,19,-214,-48,2,-69,0
8,-113,32,-125,-59,-150,-71,0
9,567,-147,115,189,184,-109,0
10,485,-324,-23,130,165,-57,0
11,488,-290,-163,78,133,-7,0
12,-188,564,250,250,-22,39,0
13,-278,29,63,189,146,56,0
14,-81,160,-72,85,271,95,0
15,32,405,-179,113,112,124,0
16,-151,294,-61,102,80,93,0
17,-120,414,-36,93,109,72,0
18,-66,598,-2,129,128,91,0
19,30,691,193,194,94,132,0
20,-21,1294,643,261,96,177,0
21,164,1775,1266,158,175,29,0
22,594,3355,2171,99,511,-15,0
23,1584,3884,2243,297,921,29,0
24,1875,1797,1610,488,279,-102,0
25,855,570,1167,297,-158,-286,0
26,442,107,834,163,292,-279,0
27,684,-153,495,109,474,-210,0
28,624,-344,240,73,289,-134,0
29,420,-433,40,43,226,-81,0
30,396,-499,-111,30,202,-4,0
31,381,-429,-157,3,78,54,0
32,224,-334,-78,-13,-36,72,0
33,128,-376,11,-45,-57,87,0
34,317,-310,152,-95,-22,109,0
35,1104,739,897,-200,156,247,0
36,1925,3922,2936,-167,543,585,0
37,2124,3922,1781,32,-281,5,0
38,462,1373,1000,22,-598,-277,0
39,-267,655,341,78,40,-42,0
40,84,134,-102,103,326,12,0
41,189,-3,-370,110,147,37,0
42,38,-147,-512,85,22,62,0
43,-58,-66,-372,34,23,83,0
44,35,111,-255,52,-23,100,0
45,-73,211,-85,85,-113,80,0
46,-69,254,126,102,-83,72,0
47,133,623,365,48,0,93,0
48,473,929,844,-99,0,8,0
49,677,2879,1940,-301,191,-35,0
50,1224,3922,2096,68,549,59,0
51,1470,2294,1532,321,91,-190,0
52,708,978,1061,257,6,-231,0
53,596,386,652,225,321,-214,0
54,750,-6,333,207,337,-182,0
55,688,-313,89,182,245,-92,0
56,565,-320,-73,118,182,-38,0
57,475,-317,-195,95,106,-22,0
58,468,-506,-239,40,44,-24,0
59,454,-483,-246,-54,-52,-17,0
60,434,-373,-132,-107,-132,-4,0
1,522,3034,2346,-29,678,326,0
2,1825,3922,3025,79,1093,17,0
3,1901,2835,2112,436,117,-242,0
4,823,772,1481,376,41,-320,0
5,1015,70,874,336,515,-227,0
6,1069,-270,505,229,273,-220,0
7,748,-387,304,169,201,-146,0
8,774,-497,67,130,206,-86,0
9,-38,536,-254,32,-71,5,0
10,-267,80,-324,29,-75,57,0
11,-244,142,-219,-6,-55,92,0
12,1054,602,1106,320,505,-339,0
15,834,-665,107,207,186,-201,0
16,840,-1075,-198,79,169,-210,0
17,788,-1115,-339,-117,45,-181,0
18,746,-735,-365,-122,-51,-67,0
19,674,-520,-272,18,-166,129,0
20,666,-384,-23,91,-189,303,0
21,1405,351,577,-85,41,391,0
22,1903,2438,1715,-131,-23,439,0
23,1858,3922,1995,-160,-114,569,0
24,1654,3922,1151,-55,-71,67,0
25,614,1292,446,-34,-573,-216,0
26,-380,580,195,21,-361,-96,0
27,-406,6,-77,89,181,21,0
28,39,-105,-322,11,144,87,0
29,-222,158,-248,-9,-80,88,0
30,-237,145,-162,32,1,99,0
31,-300,146,-75,17,-78,91,0
32,-402,231,49,-16,-21,63,0
33,-401,414,198,-17,-17,23,0
34,-334,828,522,68,104,109,0
35,775,3426,1634,207,651,420,0
36,2490,3922,2453,238,1202,279,0
37,2763,2655,1661,267,-127,-449,0
38,545,931,1624,208,-634,-590,0
41,1028,-441,361,263,111,-182,0
42,791,-685,43,184,254,-178,0
43,902,-843,-311,18,131,-243,0
44,706,-703,-369,-70,-61,-187,0
45,499,-347,-257,-14,-200,-70,0
46,303,-290,-64,116,-232,45,0
47,792,-694,148,133,-26,190,0
48,1732,618,1371,-306,109,334,0
49,1985,3922,2463,-192,-15,770,0
50,1468,3346,1258,93,-508,69,0
51,325,1174,645,-164,-545,-249,0
52,-367,900,291,-61,-200,-60,0
53,-310,226,6,100,158,46,0
54,-37,-49,-234,99,194,131,0
55,-41,86,-280,77,41,161,0
56,-98,104,-278,101,22,169,0
57,-92,97,-290,53,4,133,0
58,-124,177,-210,-2,-36,77,0
59,-167,313,32,-22,-80,65,0
60,-111,1036,411,-34,-62,97,0
1,189,1197,814,-98,-601,-256,0
2,-100,753,344,14,81,-94,0
3,206,177,-34,113,71,-15,0
4,-87,-104,-149,56,-179,-5,0
5,-254,-95,-175,-30,18,43,0
6,85,133,-186,-67,49,103,0
7,762,-7,466,160,4,-210,0
8,446,-86,325,44,-25,-184,0
9,262,-142,228,18,41,-109,0
10,291,-198,153,26,130,-20,0
11,377,-218,99,45,130,82,0
12,-85,746,256,-44,129,-64,0
13,122,428,-31,-22,30,-47,0
14,-183,269,-68,15,-162,0,0
15,-280,115,-121,37,52,61,0
16,38,211,-174,61,119,117,0
17,-11,381,-116,102,-33,117,0
18,-153,401,-28,106,6,93,0
19,-1,791,58,17,57,50,0
20,82,1057,418,-38,19,-27,0
21,256,2127,1092,2,122,-45,0
22,1033,3386,1657,151,644,6,0
23,1998,3340,1665,238,580,-42,0
24,1215,1586,1328,221,-397,-403,0
25,322,749,1018,52,-129,-435,0
26,492,512,661,144,514,-238,0
27,831,47,442,207,348,-162,0
28,574,-146,370,184,199,-106,0
29,606,-319,247,167,363,-36,0
30,712,-480,40,93,254,-38,0
31,601,-555,-39,-2,135,-21,0
32,622,-481,-96,-80,103,15,0
33,833,-349,-36,-65,52,111,0
34,1144,-217,219,-4,-28,248,0
35,1670,356,945,-48,78,462,0
36,2235,2361,2054,-216,180,698,0
37,1987,3553,1386,-246,-577,146,0
38,590,2039,847,-265,-437,-137,0
39,61,1465,491,-157,-62,-34,0
40,41,1148,20,132,-16,126,0
41,-72,625,-271,147,-140,34,0
42,-206,528,-336,18,-106,-34,0
43,-250,442,-156,-33,-31,-28,0
44,-209,501,-45,38,40,16,0
45,-195,473,3,118,31,24,0
46,-198,482,89,108,36,-24,0
47,-159,762,293,22,93,-70,0
48,220,1473,526,21,202,-38,0
49,808,2844,1125,-12,383,-70,0
50,1827,3300,1562,27,749,0,0
51,2029,2264,1309,152,-37,-293,0
52,908,911,1233,126,-326,-411,0
53,619,535,850,105,244,-304,0
56,532,-386,305,230,245,-76,0
57,576,-660,73,177,271,-25,0
58,708,-816,-155,34,240,0,0
59,735,-642,-157,-111,68,21,0
60,753,-349,5,-136,-36,95,0
1,502,1651,1806,82,341,-200,0
2,715,1087,1297,219,402,-89,0
3,717,378,855,273,348,-46,0
4,1076,2292,1520,-78,-556,-214,0
5,305,1524,886,-127,-163,-231,0
6,372,1006,347,138,118,31,0
7,319,452,17,171,-99,30,0
8,-72,162,-66,65,-121,-8,0
9,-101,217,-151,4,52,-24,0
10,29,278,-165,43,4,-27,0
11,-130,238,-48,101,-69,-28,0
12,686,-436,240,198,227,-100,0
13,696,-626,-22,29,267,-119,0
14,851,-527,-173,-93,215,-87,0
15,843,-264,-165,-146,-54,-74,0
16,602,-65,1,-60,-187,-9,0
17,713,-17,124,60,-143,93,0
18,1015,53,428,86,-154,188,0
19,1637,932,1279,-112,64,331,0
20,1803,3167,1896,-256,-284,292,0
21,963,3135,1237,-219,-598,-74,0
22,363,2039,796,-103,-118,-29,0
23,364,1235,300,14,-16,20,0
24,158,558,-22,101,-170,37,0
25,-149,128,-144,48,-112,35,0
26,-138,66,-237,-24,56,63,0
27,3,125,-300,-25,4,76,0
28,-112,177,-219,21,-117,88,0
29,-249,126,-130,59,-104,110,0
30,-331,153,-33,-10,-101,107,0
31,-301,755,257,-88,-51,105,0
32,-39,2257,1221,-29,68,112,0
33,692,3922,2111,181,535,164,0
34,1882,3761,2002,379,761,120,0
35,1411,1580,1690,405,-130,-311,0
36,705,602,1368,313,-14,-344,0
37,885,350,1035,267,577,-228,0
38,1229,0,767,382,560,-55,0
39,1095,-349,472,333,275,-62,0
40,834,-481,230,228,236,-63,0
41,857,-562,8,105,290,-72,0
42,895,-584,-165,-19,144,-74,0
43,707,-421,-198,-123,-91,-77,0
44,509,-209,-75,-106,-186,-40,0
45,462,-192,63,-28,-240,18,0
46,801,-436,444,-19,-145,163,0
47,1313,1167,1809,-327,49,376,0
48,1786,3922,2050,-150,-309,593,0
49,959,3017,994,58,-488,66,0
50,559,1516,681,-58,50,-52,0
51,305,1014,392,-187,-85,-184,0
52,-5,905,35,-35,-125,-106,0
53,-128,430,-162,166,180,39,0
54,107,273,-349,176,187,110,0
55,-45,342,-287,100,-47,84,0
56,-206,539,-133,23,26,38,0
57,-120,681,-7,42,94,-6,0
58,-59,665,130,53,91,-58,0
59,188,791,400,72,172,-33,0
60,598,1416,933,29,342,87,0
1,1588,-313,1115,-473,-253,153,0
2,1595,173,1366,-493,-363,352,0
3,1384,546,1317,-454,-319,505,0
4,1103,876,927,-311,-99,560,0
5,1085,852,678,-55,245,515,0
6,1422,553,540,107,448,457,0
7,1879,559,657,247,210,90,0
8,1665,486,472,275,-210,26,0
9,1076,351,462,149,-234,-180,0
10,1360,391,553,60,48,-322,0
11,1514,371,686,118,-178,-381,0
12,708,-124,479,-10,-121,-307,0
13,704,-239,455,9,-54,-212,0
14,922,-545,387,2,57,-69,0
15,817,-254,356,-86,-68,208,0
16,840,143,289,0,113,465,0
17,1173,227,156,44,195,500,0
18,1211,142,52,2,58,413,0
19,1113,-1,54,-135,100,319,0
20,1308,2,195,-274,177,297,0
21,1515,203,477,-358,128,321,0
22,1622,472,662,-317,98,386,0
23,1625,704,683,-190,95,492,0
24,1521,913,590,-32,116,544,0
25,1300,990,451,124,81,513,0
26,1089,1020,279,169,103,336,0
27,1111,785,128,196,208,96,0
28,1282,483,36,159,164,-94,0
29,1246,282,-11,116,0,-164,0
30,1138,279,76,89,-65,-145,0
31,1145,357,158,132,-100,-91,0
32,1025,375,253,197,-167,-53,0
33,928,358,351,244,-112,-30,0
34,1510,295,896,254,237,20,0
35,2419,506,869,369,239,199,0
36,1590,450,719,461,-506,258,0
37,950,339,498,291,-362,27,0
38,1269,349,520,81,-74,-282,0
39,1582,215,808,34,-260,-551,0
40,1620,-45,1081,7,-314,-658,0
41,1412,-94,1044,-10,-428,-647,0
42,894,-93,925,16,-411,-478,0
43,552,-45,765,18,-131,-297,0
44,574,74,575,45,87,-176,0
45,608,122,469,78,86,-115,0
46,575,135,442,102,100,-72,0
47,619,68,427,110,111,-37,0
48,586,-15,414,66,72,-16,0
49,536,-2,396,0,106,27,0
50,596,113,351,-30,150,93,0
51,652,209,329,-31,151,160,0
52,707,320,317,-13,176,220,0
53,854,416,302,47,251,291,0
54,1047,443,312,151,305,367,0
55,1376,280,388,238,412,439,0
56,1642,197,384,243,307,471,0
57,1602,136,399,233,210,464,0
58,1683,31,367,119,258,361,0
59,1778,104,351,-111,187,127,0
60,1414,346,198,-213,-68,-65,0
1,919,395,650,150,-183,-126,0
2,782,366,783,225,-46,-51,0
3,798,335,800,286,30,49,0
4,824,288,824,247,65,35,0
5,833,322,890,173,50,-52,0
6,892,212,821,220,80,-40,0
7,714,-202,1032,217,26,-12,0
8,171,-368,1505,161,61,21,0
9,-112,-235,2140,415,230,373,0
10,153,-186,2702,337,970,188,0
11,3922,-1047,-3922,1195,-552,912,0
12,547,283,818,51,-108,-66,0
13,489,378,782,-10,-62,-124,0
14,413,443,731,-5,-46,-129,0
15,358,460,667,100,23,-51,0
16,377,339,629,154,105,-14,0
17,412,249,633,103,120,-29,0
18,416,279,564,89,180,7,0
19,523,311,441,126,248,91,0
20,692,375,377,146,279,139,0
21,898,412,327,170,322,173,0
22,1135,430,313,163,324,176,0
23,1270,473,392,180,250,177,0
24,1326,474,500,257,220,209,0
25,1500,312,646,303,266,230,0
26,1504,342,596,310,103,227,0
27,1157,270,374,365,28,225,0
28,1120,108,177,270,94,95,0
29,1012,20,114,140,0,-41,0
30,895,61,192,34,-6,-88,0
31,895,152,397,22,9,-75,0
32,917,144,460,68,25,-4,0
33,989,137,462,72,70,90,0
34,1074,299,407,80,63,168,0
35,1103,369,349,71,23,174,0
36,1045,387,359,18,-50,109,0
37,915,377,456,-87,-105,-14,0
38,821,399,528,-159,-107,-109,0
39,777,389,555,-171,-98,-139,0
40,758,399,563,-138,-88,-115,0
41,754,409,557,-64,-82,-54,0
42,731,408,599,4,-73,0,0
43,722,375,556,51,-50,34,0
44,765,319,517,48,-23,43,0
45,850,327,555,26,2,34,0
46,936,327,535,37,-1,32,0
47,995,341,423,60,-1,53,0
48,1051,337,316,106,12,83,0
49,1161,254,321,101,28,63,0
50,1389,130,394,22,61,0,0
51,1142,233,186,-33,-152,-50,0
52,833,221,-51,-31,-68,-45,0
53,965,274,-165,-62,87,-83,0
54,1123,216,-138,2,-57,-79,0
55,1127,77,15,41,-97,-41,0
56,1244,-28,222,-10,-94,-20,0
57,1136,89,399,-99,-199,-33,0
58,938,235,406,-123,-140,-31,0
59,896,352,295,-108,-69,-30,0
60,815,376,139,-52,-85,-22,0
1,1045,328,-75,45,18,7,0
2,1038,322,-64,25,-20,-11,0
3,989,314,-11,13,-32,-23,0
4,721,526,622,-80,-50,-13,0
5,762,406,650,7,74,28,0
6,910,314,681,17,155,43,0
7,812,314,1099,21,169,61,0
8,545,327,1349,106,437,90,0
9,895,79,1603,277,1058,291,0
10,1661,-63,1573,367,1073,394,0
11,3420,704,-3250,649,-1140,411,0
12,804,189,573,7,-163,-32,0
13,708,142,591,-27,-163,-51,0
14,675,174,577,-60,-136,-67,0
15,640,171,625,-50,-92,-56,0
16,640,175,572,-31,-20,-21,0
17,714,188,489,-6,57,18,0
18,822,220,383,13,66,33,0
19,895,188,329,27,56,39,0
20,933,174,306,21,41,40,0
21,942,191,304,17,46,42,0
22,984,183,266,10,89,38,0
23,1063,200,200,0,119,35,0
24,1132,237,123,24,127,47,0
25,1181,195,42,55,137,58,0
26,1231,193,-18,56,114,52,0
27,1243,193,-57,73,85,49,0
28,1235,156,-71,81,54,38,0
29,1210,120,-43,50,6,19,0
30,1156,152,37,24,-38,1,0
31,1091,161,121,21,-69,-3,0
32,1066,159,183,8,-78,-13,0
33,1017,159,225,-11,-92,-25,0
34,966,168,260,-33,-85,-37,0
35,966,186,290,-48,-61,-44,0
36,960,220,306,-43,-56,-44,0
37,935,236,312,-23,-52,-35,0
38,931,240,320,-4,-32,-29,0
39,924,233,323,17,-25,-22,0
40,925,216,307,32,-3,-15,0
41,929,208,277,35,7,-13,0
42,946,204,262,32,15,-16,0
43,958,199,247,30,18,-18,0
44,957,198,231,32,21,-15,0
45,984,202,219,34,25,-13,0
46,996,189,209,39,23,-13,0
47,991,174,174,41,26,-10,0
48,1006,166,144,37,29,-6,0
49,1017,166,139,32,21,-4,0
50,1032,154,135,32,15,0,0
51,1025,144,125,25,4,5,0
52,1018,152,114,15,1,8,0
53,1031,163,96,9,-3,10,0
54,1058,156,57,5,4,15,0
55,1109,185,14,-16,12,11,0
56,1151,187,-43,-67,12,-17,0
57,1188,257,-48,-115,-37,-61,0
58,1113,285,33,-99,-104,-67,0
59,1039,263,128,-69,-118,-55,0
60,973,242,235,-47,-130,-38,0
1,1218,164,407,-51,-304,19,0
2,985,173,855,-92,-346,-19,0
3,846,157,741,-162,-195,-36,0
4,965,293,584,-187,-37,-9,0
5,1042,439,539,-163,-121,-32,0
6,366,305,1295,41,55,77,0
7,458,174,1790,104,555,144,0
8,844,-44,1510,201,826,272,0
9,1028,670,-2653,-429,-575,-170,0
10,442,559,-24,-626,524,-116,0
11,1081,687,429,65,350,20,0
12,636,74,271,36,-44,-19,0
13,626,76,303,41,1,24,0
14,690,102,314,49,78,68,0
15,790,144,270,57,116,101,0
16,900,189,232,73,160,125,0
17,1016,197,156,104,191,144,0
18,1040,152,130,89,178,136,0
19,1112,192,126,34,180,108,0
20,1160,245,113,28,151,84,0
21,1140,231,114,32,129,66,0
22,1174,248,107,33,135,48,0
23,1324,307,-45,43,131,28,0
24,1339,286,-134,83,-11,28,0
25,1113,103,-8,72,-38,24,0
26,1081,186,72,65,27,3,0
27,1139,128,99,26,19,-37,0
28,1130,125,110,24,-7,-32,0
29,1096,173,163,10,-63,-36,0
30,1019,185,232,13,-98,-44,0
31,974,167,306,11,-99,-53,0
32,952,154,358,2,-88,-56,0
33,931,165,367,-2,-59,-50,0
34,922,185,351,3,-29,-41,0
35,925,199,322,13,-12,-37,0
36,922,188,302,19,-10,-39,0
37,918,164,302,18,-7,-40,0
38,918,145,310,12,-3,-41,0
39,903,125,324,1,2,-39,0
40,882,125,314,-4,12,-28,0
41,899,127,272,5,47,-5,0
42,969,129,214,10,66,15,0
43,1028,134,170,14,68,35,0
44,1044,145,143,6,50,45,0
45,1021,171,138,-7,33,42,0
46,1036,184,144,-17,35,30,0
47,1050,167,144,-26,18,20,0
48,1036,180,167,-31,6,22,0
49,1029,197,197,-22,3,29,0
50,1020,202,213,-13,5,34,0
51,1000,209,211,-12,4,33,0
52,1001,238,212,-9,6,29,0
53,1009,246,218,3,2,24,0
54,1019,248,209,10,0,14,0
55,979,193,234,-8,4,3,0
58,993,197,234,-1,-3,-13,0
59,964,206,241,0,-8,-13,0
60,955,217,239,3,0,-12,0
1,1286,356,-134,43,35,-39,0
2,1223,384,-84,56,-20,-41,0
3,1161,325,-43,72,-20,-43,0
4,1180,274,-15,23,-48,-75,0
5,1113,327,41,-8,-102,-93,0
6,1056,354,85,11,-81,-87,0
7,1088,276,115,11,-92,-93,0
10,934,47,1917,354,1288,344,0
11,3922,-202,-3922,584,-893,642,0
12,943,455,514,-92,-59,-5,0
13,845,383,520,35,-106,47,0
14,838,290,513,64,-39,66,0
15,894,284,499,40,-24,54,0
16,909,304,483,26,-1,37,0
17,938,297,448,19,12,21,0
18,950,277,433,12,10,8,0
19,932,255,423,5,3,0,0
20,895,233,414,0,8,-2,0
21,879,231,407,-1,24,1,0
22,870,243,391,8,29,12,0
23,878,252,370,28,52,31,0
24,929,263,349,52,60,47,0
25,974,250,342,72,65,61,0
26,1021,247,326,80,59,70,0
27,1017,254,311,83,49,74,0
28,1036,255,291,74,59,66,0
29,1084,225,272,44,58,38,0
30,1109,200,253,-13,35,-4,0
31,1067,157,181,-79,9,-39,0
32,1058,302,241,-101,8,-65,0
33,1012,305,248,-30,-29,-54,0
34,995,276,259,58,0,-12,0
35,1025,189,244,97,-3,17,0
36,1021,191,246,90,-10,12,0
37,1007,151,229,72,-23,-3,0
38,981,140,256,38,-32,-14,0
39,950,172,285,19,-37,-16,0
42,948,183,332,45,-33,5,0
43,924,176,343,42,-20,5,0
44,927,181,338,33,-12,0,0
45,929,189,346,30,0,-2,0
46,967,202,347,37,12,-1,0
47,994,215,344,50,19,0,0
48,1015,226,320,70,26,0,0
49,978,224,272,94,19,0,0
50,944,211,238,117,34,-1,0
51,1050,280,119,188,48,38,0
52,1071,149,185,241,-33,33,0
53,932,53,234,194,-36,6,0
54,948,1,191,133,38,0,0
55,989,28,115,107,35,4,0
56,1002,3,81,86,27,16,0
57,1016,39,90,63,25,26,0
58,988,72,98,33,24,23,0
59,1002,120,108,7,36,17,0
60,1029,135,146,-2,30,13,0
1,987,252,490,-69,-106,-67,0
2,889,311,522,-44,-57,-59,0
3,847,320,596,-58,-21,-83,0
4,741,303,687,-26,-3,-93,0
5,620,241,970,-26,35,-93,0
6,453,250,1150,126,42,-28,0
7,438,-188,1313,227,161,113,0
8,238,-33,1981,-131,191,-79,0
9,68,417,2299,177,420,180,0
10,1092,80,1731,416,1339,328,0
11,-266,-3083,-2806,-100,-124,344,0
12,765,173,620,12,-128,5,0
13,757,225,664,-28,-79,0,0
14,784,276,589,41,-42,53,0
15,832,208,527,69,-7,66,0
16,845,204,527,22,12,29,0
17,872,215,469,9,24,13,0
18,899,211,443,-11,41,2,0
19,939,242,393,-15,33,4,0
20,936,263,443,-4,14,7,0
21,940,267,406,5,43,-3,0
22,979,234,348,1,72,-12,0
23,1022,237,323,-11,68,-14,0
24,1042,268,297,-6,59,-7,0
25,1047,292,254,21,60,1,0
26,1065,293,214,49,54,4,0
27,1119,313,139,85,51,13,0
28,1090,267,165,157,9,51,0
29,1074,176,155,175,12,66,0
30,1069,134,183,119,17,47,0
31,1062,169,227,82,-36,28,0
32,1004,144,259,62,-50,20,0
33,1005,140,287,25,-45,9,0
34,991,160,313,-9,-58,-4,0
35,970,186,334,-23,-57,-10,0
36,961,200,346,-27,-51,-12,0
37,949,213,360,-26,-48,-13,0
38,937,214,364,-21,-45,-12,0
39,930,232,376,-12,-39,-12,0
40,915,222,380,-3,-25,-10,0
41,920,224,379,7,-12,-4,0
42,918,230,373,16,-3,0,0
43,920,229,360,27,9,4,0
44,932,221,343,32,18,6,0
45,949,220,326,31,22,4,0
46,954,225,319,29,24,2,0
47,973,223,306,30,26,-1,0
48,973,219,297,30,25,-2,0
49,981,225,287,33,27,-4,0
50,984,220,274,36,25,-5,0
51,994,211,262,37,27,-7,0
52,998,199,253,37,21,-8,0
53,1000,189,251,37,18,-8,0
54,1003,179,251,33,12,-8,0
55,998,169,245,27,9,-8,0
56,997,169,252,20,5,-6,0
57,989,169,257,14,1,-4,0
58,985,175,262,11,0,-1,0
59,981,184,277,10,-1,2,0
60,980,190,281,10,-3,5,0
1,1007,292,141,-41,-77,-42,0
2,990,307,157,-38,-83,-42,0
3,975,316,142,-35,-77,-49,0
4,991,307,128,-50,-70,-60,0
5,609,173,996,119,176,34,0
6,650,109,1113,115,249,72,0
7,644,81,1318,70,400,94,0
8,745,202,1416,72,629,112,0
9,1136,244,1306,206,759,203,0
10,1480,130,1243,330,719,255,0
11,3922,407,-3922,1138,-1743,864,0
12,747,204,629,2,-148,-44,0
13,700,190,600,-39,-130,-53,0
14,682,231,635,-36,-65,-32,0
15,752,259,483,-13,3,0,0
16,798,259,449,3,7,17,0
17,819,262,426,-2,19,19,0
18,873,263,343,7,41,38,0
19,905,259,322,12,24,49,0
20,918,273,313,18,18,56,0
21,954,260,301,16,27,56,0
22,987,290,276,16,23,55,0
23,1009,297,265,36,18,52,0
24,996,271,300,40,13,41,0
25,987,257,279,36,28,30,0
26,1017,240,246,29,55,24,0
27,1051,252,232,26,40,20,0
28,1022,255,249,35,11,18,0
29,994,226,277,44,23,16,0
30,1007,219,262,37,28,8,0
31,1004,200,240,41,23,10,0
32,1009,194,254,28,23,8,0
33,999,227,288,25,10,2,0
34,976,198,263,38,16,0,0
35,1001,183,255,22,33,-2,0
36,1012,218,264,22,11,4,0
37,991,235,291,42,4,10,0
38,989,201,283,52,9,10,0
39,997,193,282,34,10,3,0
40,986,216,280,25,7,0,0
41,989,220,277,33,9,-3,0
42,1002,203,274,33,7,-6,0
43,991,203,285,33,-2,-3,0
44,983,205,294,39,-2,0,0
45,981,210,303,42,0,2,0
46,983,206,301,47,0,0,0
47,990,185,283,40,4,-5,0
48,992,185,291,25,-5,-13,0
49,973,193,313,18,-11,-15,0
50,964,191,321,20,-7,-11,0
51,959,195,328,27,-4,-4,0
52,958,202,333,34,0,-1,0
53,952,198,324,35,3,0,0
54,955,198,318,38,6,4,0
55,964,192,319,40,9,6,0
56,965,177,316,36,9,5,0
57,967,190,314,29,11,5,0
58,967,196,304,26,10,5,0
59,964,197,288,23,13,3,0
60,972,200,284,18,12,0,0
1,810,256,428,-21,-55,-36,0
2,865,330,354,-45,-14,-44,0
3,907,346,405,-31,-44,-50,0
4,809,381,529,3,-82,-61,0
5,739,172,617,81,-23,-16,0
6,789,190,874,39,44,-10,0
7,590,131,1194,138,-34,37,0
8,360,24,1558,100,252,33,0
9,486,76,1804,159,589,120,0
10,664,92,1941,332,732,256,0
11,3922,-316,-3670,515,849,402,0
12,769,233,585,-20,-87,-35,0
13,767,202,569,-1,-72,-10,0
14,788,225,489,0,-72,3,0
15,838,249,455,26,-67,15,0
18,869,199,436,47,-1,42,0
19,889,221,395,34,51,49,0
20,948,248,365,37,91,49,0
21,1006,273,324,54,100,44,0
22,1033,271,275,80,99,44,0
23,1056,249,236,101,104,44,0
24,1079,219,207,106,96,38,0
25,1084,198,178,99,83,28,0
26,1091,187,165,90,68,18,0
27,1125,173,83,73,46,7,0
28,1067,118,104,61,15,5,0
29,1079,114,111,0,12,-18,0
30,1026,178,191,7,-30,-17,0
31,975,164,232,3,-27,-11,0
32,993,169,273,-14,-20,-8,0
33,1035,239,287,-31,-26,-8,0
34,1094,363,228,-31,-54,-22,0
35,1101,458,195,-34,-117,-47,0
36,1138,517,175,-55,-164,-103,0
37,1111,593,159,-48,-224,-133,0
38,1017,653,120,29,-270,-140,0
39,958,582,32,82,-234,-134,0
40,945,518,-58,50,-219,-160,0
41,907,602,-22,60,-237,-151,0
42,868,628,-102,121,-251,-152,0
43,764,511,-157,148,-272,-157,0
44,684,545,-194,160,-257,-163,0
45,687,440,-298,246,-249,-142,0
46,594,323,-278,215,-273,-140,0
47,503,298,-247,196,-244,-127,0
48,570,280,-284,221,-194,-102,0
49,507,193,-291,198,-225,-90,0
50,451,158,-367,158,-227,-85,0
51,538,248,-495,174,-145,-48,0
52,518,199,-653,129,-135,-16,0
53,480,385,-820,46,-154,-33,0
54,380,456,-945,123,-161,-55,0
55,176,179,-889,67,-114,-63,0
56,302,281,-1072,60,-58,-32,0
57,183,59,-1100,87,-106,-13,0
58,14,94,-982,6,-138,-5,0
59,62,104,-1084,37,-57,14,0
60,200,167,-1039,17,-97,7,0
2,933,351,-280,-89,-104,89,0
3,950,343,-196,-163,-136,78,0
4,1024,346,-101,-215,-208,82,0
5,1226,393,36,-243,-323,84,0
6,1238,277,385,-212,-427,106,0
7,1273,410,763,-158,-376,153,0
8,562,629,1378,34,-193,243,0
9,190,1087,1715,242,550,-7,0
10,1567,811,1454,475,1478,-319,0
11,3922,-774,-3922,-173,-147,-259,0
12,923,279,-156,-13,-5,55,0
13,912,312,-176,-28,-19,47,0
14,893,368,-216,-18,-4,36,0
15,906,370,-259,10,10,22,0
16,914,351,-292,31,9,3,0
17,940,314,-336,46,17,-15,0
18,978,271,-379,58,18,-31,0
19,1031,213,-403,63,8,-40,0
20,1032,163,-410,54,-27,-40,0
21,994,112,-398,29,-61,-35,0
22,970,60,-347,-22,-96,-31,0
23,930,68,-267,-83,-128,-25,0
24,879,93,-175,-128,-145,-12,0
25,815,116,-94,-171,-153,0,0
28,788,178,154,-310,-133,63,0
29,780,268,209,-315,-109,88,0
30,774,383,224,-274,-49,114,0
31,755,543,173,-182,34,131,0
32,741,784,-1,-4,167,124,0
33,889,868,-189,242,370,106,0
34,1157,638,-333,482,509,95,0
35,1348,173,-482,559,485,112,0
36,1267,-266,-810,399,321,130,0
37,1299,-432,-895,35,146,115,0
38,1367,-208,-623,-410,-177,23,0
39,1273,63,72,-794,-410,-77,0
40,1158,127,697,-1125,-443,-247,0
41,954,629,741,-1141,-420,-343,0
42,1100,932,366,-804,-320,-289,0
43,826,618,349,-451,-266,-241,0
44,446,192,305,-406,-138,-180,0
45,304,519,397,-417,99,-75,0
46,428,663,302,-158,371,76,0
47,669,571,312,-43,630,178,0
48,1088,365,595,107,836,377,0
49,1304,485,608,255,690,482,0
50,1150,516,531,566,540,594,0
51,1020,140,577,682,481,756,0
52,935,31,419,722,238,879,0
53,997,274,256,715,98,954,0
54,1061,418,247,742,-61,979,0
55,1106,475,272,754,-194,906,0
56,1165,472,472,695,-271,777,0
57,1401,170,502,634,-328,642,0
58,1613,-249,268,502,-546,475,0
59,1584,-533,366,184,-739,240,0
60,1309,-675,465,-138,-798,29,0
1,389,205,-341,876,-167,520,0
2,198,-133,-431,748,-214,439,0
3,307,-361,-550,363,-224,251,0
4,327,-532,-561,-5,-321,80,0
5,161,-602,-216,-385,-311,-36,0
6,120,-497,-159,-663,-144,-68,0
7,441,128,-281,-852,10,-117,0
8,661,720,-613,-560,-152,-172,0
9,477,894,751,627,-58,67,0
10,374,869,544,768,28,52,0
11,340,850,419,854,60,31,0
12,616,236,-68,-524,-414,-86,0
13,519,356,219,-724,-402,-137,0
14,453,350,508,-900,-339,-170,0
15,483,315,616,-1195,-284,-180,0
16,637,599,1199,-1381,-267,-50,0
17,759,1212,1454,-1121,-351,149,0
18,745,1348,1320,-755,-148,237,0
19,866,1511,1238,-271,-46,123,0
20,806,1263,1162,271,58,40,0
21,698,896,1216,591,169,47,0
22,661,775,1058,722,168,97,0
23,572,889,797,810,153,59,0
24,486,893,564,936,154,-8,0
25,482,680,408,1044,143,-15,0
26,385,406,254,1072,49,66,0
27,239,278,77,1056,66,122,0
28,311,34,-99,1017,195,176,0
29,460,-437,-386,782,179,216,0
30,538,-808,-638,258,115,152,0
31,694,-468,-477,-460,110,-65,0
32,642,37,-229,-898,31,-191,0
33,640,469,47,-1041,-13,-239,0
34,601,654,236,-995,-132,-259,0
35,446,686,389,-945,-197,-267,0
36,410,542,534,-935,-207,-259,0
37,426,464,791,-983,-267,-271,0
38,376,324,1094,-1046,-304,-278,0
39,418,59,1375,-1139,-268,-229,0
40,670,517,1616,-935,-242,-210,0
41,904,893,1632,-307,-287,-109,0
42,714,400,1623,255,-95,28,0
43,782,-44,1467,267,127,141,0
44,767,424,1156,195,116,194,0
45,671,810,982,413,163,254,0
46,555,936,902,707,187,240,0
47,428,943,806,948,194,150,0
48,407,806,691,1120,231,54,0
49,423,526,534,1212,252,15,0
50,366,204,341,1194,220,48,0
51,286,-221,-3,1035,263,113,0
52,391,-430,-364,690,303,182,0
53,608,-326,-625,249,307,232,0
54,837,122,-637,-149,191,194,0
55,867,406,-557,-357,-26,100,0
56,840,355,-277,-506,-196,16,0
57,785,278,60,-730,-313,-58,0
58,629,304,433,-970,-300,-114,0
59,435,456,726,-1121,-239,-112,0
60,395,680,990,-1200,-101,-93,0
1,1220,-135,-680,-358,97,209,0
2,1475,-102,-393,-564,-171,167,0
3,1535,-47,110,-804,-425,82,0
4,1640,-196,783,-1102,-561,-3,0
5,1247,587,237,-403,189,297,0
6,1100,848,370,-339,273,339,0
7,1232,1022,486,-117,502,324,0
8,1522,1179,558,209,628,207,0
9,1373,1477,534,584,619,95,0
10,1242,1291,482,995,662,222,0
11,1400,610,388,1227,644,212,0
12,1304,-145,-558,-534,139,206,0
13,1307,47,-280,-750,-107,94,0
14,1209,107,140,-959,-324,-21,0
15,1110,122,599,-1153,-446,-129,0
16,930,108,957,-1289,-505,-208,0
17,745,160,1116,-1309,-452,-219,0
18,738,248,1092,-1190,-265,-129,0
19,918,322,1005,-978,-139,-41,0
20,1106,409,907,-738,-121,18,0
21,1106,484,799,-497,-186,32,0
22,871,565,761,-223,-215,98,0
23,654,607,738,-53,-41,203,0
24,871,913,515,80,63,175,0
25,573,1453,889,503,-55,69,0
26,476,1006,644,879,306,-62,0
27,872,716,239,870,509,-167,0
28,955,560,173,835,491,-192,0
29,1211,135,-167,726,635,-94,0
30,1219,157,-294,563,422,94,0
31,1026,324,-298,500,324,211,0
32,1036,387,-236,542,383,271,0
33,1142,310,-241,573,312,272,0
34,1133,195,-264,563,150,249,0
35,986,221,-374,502,-47,223,0
36,708,156,-317,428,-89,169,0
37,623,28,-327,291,-75,109,0
38,648,-98,-327,82,-81,74,0
39,825,21,-367,-95,-67,66,0
40,1107,53,-318,-201,-105,104,0
41,1345,88,-194,-356,-202,126,0
42,1384,114,64,-581,-327,101,0
43,1232,62,424,-840,-416,24,0
44,1036,-62,823,-1105,-432,-49,0
45,622,32,1333,-1325,-444,-109,0
46,146,777,1074,-1177,-355,10,0
47,303,1135,421,-600,175,186,0
48,816,954,38,-106,301,110,0
49,801,681,-75,174,141,92,0
50,925,515,-126,297,178,140,0
51,1190,525,-143,373,132,210,0
52,1160,576,-165,455,37,264,0
53,1102,585,-188,503,95,298,0
54,1072,602,-307,491,131,281,0
55,1017,658,-425,453,147,178,0
56,1001,542,-538,405,205,138,0
57,1113,511,-606,296,186,90,0
58,1116,537,-491,194,68,44,0
59,1065,409,-316,207,-27,2,0
60,1014,293,-265,214,-62,-21,0
1,2413,2119,-343,-864,284,-1068,0
2,863,1,509,179,-232,363,0
3,959,648,276,74,34,-110,0
4,1142,40,366,-627,-297,-61,0
5,981,131,491,-701,-296,-61,0
6,777,279,497,-672,-229,-27,0
7,631,455,422,-529,-128,17,0
8,529,583,279,-302,-31,51,0
9,585,584,101,-39,71,73,0
10,662,456,-21,151,103,95,0
11,752,337,-122,250,129,132,0
12,979,590,-132,47,-120,-114,0
13,1010,517,-29,32,-129,-155,0
14,1075,440,44,11,-118,-184,0
15,1126,343,94,-12,-104,-200,0
16,1144,253,153,-53,-94,-198,0
17,1045,256,180,-94,-80,-176,0
18,967,315,165,-112,-5,-151,0
19,984,350,120,-104,40,-147,0
20,945,320,80,-95,45,-146,0
21,882,294,62,-105,48,-143,0
22,774,278,47,-128,55,-138,0
23,703,337,18,-115,94,-130,0
24,718,369,-38,-33,140,-116,0
25,774,327,-98,78,170,-80,0
26,874,291,-164,187,201,-36,0
27,982,256,-265,279,178,8,0
28,981,184,-397,354,177,73,0
29,1085,44,-556,357,173,174,0
30,1069,-17,-604,280,21,233,0
31,1013,11,-515,133,-50,234,0
32,996,73,-300,-87,-60,191,0
33,963,210,-170,-227,-71,177,0
34,906,396,-35,-268,-27,182,0
35,969,574,-3,-222,40,163,0
36,1058,718,-43,-108,22,135,0
37,1115,884,0,160,-24,119,0
38,1098,586,74,358,-58,126,0
39,1070,397,33,341,-22,114,0
40,1076,317,-53,195,16,97,0
41,1030,406,-147,11,46,56,0
42,995,476,-199,-133,50,-9,0
43,939,445,-173,-250,9,-83,0
44,881,463,-142,-313,-13,-139,0
45,890,489,-121,-294,-21,-176,0
46,890,568,-213,-176,-19,-205,0
47,1036,301,-277,-38,-20,-181,0
48,1083,4,-295,-50,-147,-133,0
49,1028,-117,-149,-183,-189,-102,0
50,990,-61,11,-316,-172,-65,0
51,905,152,86,-346,-112,7,0
52,843,449,35,-243,0,78,0
53,840,585,-92,-70,92,94,0
54,810,562,-236,90,135,77,0
55,879,420,-273,190,131,61,0
56,853,258,-279,190,74,56,0
57,865,223,-233,129,26,60,0
58,851,269,-141,81,-7,68,0
59,897,295,-87,61,8,79,0
60,1000,310,-89,53,32,99,0
1,982,-15,133,-190,-169,-29,0
2,1042,45,221,-210,-219,39,0
3,1059,321,242,-168,-238,107,0
4,1079,460,276,-34,-287,194,0
5,1049,564,363,69,-312,243,0
6,875,572,509,193,-341,250,0
7,432,400,617,268,-229,297,0
8,260,274,1013,183,308,302,0
9,731,364,1094,170,1024,253,0
10,1656,-117,150,-78,1192,153,0
11,3922,782,-3922,-1743,141,-372,0
12,1050,307,20,-78,-37,-16,0
13,933,273,-4,-66,-43,2,0
14,816,310,-24,-61,-31,14,0
15,686,347,-53,-48,-16,15,0
16,604,323,-97,-35,6,4,0
17,696,226,-141,-34,41,-3,0
18,999,95,-173,-38,51,8,0
19,1360,12,-171,-52,40,84,0
20,1629,105,-111,-96,-36,216,0
21,1495,287,33,-198,-228,297,0
22,1158,426,274,-368,-339,254,0
23,749,535,444,-503,-292,115,0
24,566,699,378,-483,-78,-4,0
25,787,777,173,-312,101,-58,0
26,1007,741,3,-92,98,-97,0
27,1259,447,-143,53,112,-108,0
28,1527,-6,-35,-31,-62,-111,0
29,1330,-160,201,-289,-292,-123,0
30,1028,-91,419,-489,-314,-124,0
31,779,-4,528,-556,-234,-80,0
32,680,102,513,-504,-129,-4,0
33,627,226,433,-357,-69,75,0
34,625,429,300,-133,-12,153,0
35,656,550,130,135,47,201,0
36,821,461,3,319,115,214,0
37,1017,349,-164,365,133,231,0
38,1119,326,-95,130,135,218,0
39,1166,847,-108,41,223,262,0
40,1301,1213,2,101,243,236,0
41,1176,1058,-8,430,159,260,0
42,1194,804,-137,619,171,187,0
43,1289,493,-160,600,81,83,0
44,1200,206,-302,404,-19,24,0
45,1110,266,-229,263,-110,-17,0
46,983,249,-176,173,-122,-42,0
47,959,251,-138,99,-130,-45,0
48,864,263,-51,118,-130,-32,0
49,964,181,-138,106,-86,-3,0
50,1130,313,-139,8,-128,0,0
51,1306,328,-57,-55,-170,-9,0
52,1546,369,83,-127,-220,0,0
53,1349,471,257,-222,-352,-6,0
54,1083,529,442,-306,-329,-79,0
55,930,582,509,-330,-217,-222,0
56,1059,564,439,-244,-3,-315,0
57,1326,473,344,-90,142,-330,0
58,1454,348,254,44,156,-310,0
59,1337,275,178,117,129,-293,0
60,1204,274,102,164,145,-279,0
1,2119,543,-291,113,211,216,0
2,2550,288,115,-236,-252,-19,0
3,1895,-37,515,-654,-525,-350,0
4,1210,-59,528,-982,-374,-587,0
5,1013,357,129,-985,-36,-568,0
6,1251,476,-190,-688,179,-450,0
7,1254,314,-251,-394,-77,-384,0
8,1003,-301,-112,-300,-341,-271,0
9,992,-1552,845,-705,-493,-17,0
10,-1,-893,2250,-1694,-424,-308,0
11,-232,890,1875,-1503,-211,-121,0
12,1482,1243,-825,258,146,350,0
13,1796,954,-116,172,256,-292,0
14,2118,482,285,30,-294,-663,0
15,1572,22,449,-33,-404,-698,0
16,965,7,428,-18,-192,-470,0
17,664,78,282,76,143,-227,0
18,1021,132,1,145,437,-93,0
19,1443,197,-201,145,428,-26,0
20,1676,263,-309,113,230,0,0
21,1578,253,-280,29,-105,-43,0
22,1352,185,-147,-111,-274,-140,0
23,1283,208,0,-246,-280,-238,0
24,1226,298,60,-255,-249,-313,0
25,1071,340,31,-120,-174,-330,0
26,897,159,-70,86,-44,-300,0
27,791,-175,-210,225,51,-208,0
28,692,-476,-348,227,36,-48,0
29,633,-503,-423,143,-5,114,0
30,739,-405,-415,10,-80,206,0
31,810,-273,-323,-126,-209,252,0
32,859,-196,-233,-239,-255,281,0
33,1019,-178,-217,-314,-237,324,0
34,1301,-190,-147,-395,-235,386,0
35,1596,-190,154,-541,-347,414,0
36,1927,-258,655,-765,-501,408,0
37,2172,-227,1294,-990,-600,382,0
38,2136,239,1655,-1034,-667,437,0
39,1716,1219,1414,-728,-601,575,0
40,1274,2118,791,-81,-302,569,0
41,1079,1906,464,564,110,371,0
42,1224,1239,400,760,174,136,0
43,1232,557,207,627,-47,-92,0
44,1020,176,-44,327,-83,-220,0
45,871,122,-152,45,34,-221,0
46,834,380,-248,-107,129,-160,0
47,920,654,-327,-79,190,-115,0
48,1010,761,-365,34,147,-123,0
49,1053,703,-370,151,81,-162,0
50,1129,523,-305,216,13,-204,0
51,1165,372,-232,220,-60,-232,0
52,1121,275,-228,212,-48,-245,0
53,1103,166,-260,183,-9,-233,0
54,1033,124,-291,130,-22,-215,0
55,938,100,-295,77,-31,-203,0
56,829,65,-261,35,-51,-186,0
57,682,55,-214,15,-57,-154,0
58,579,57,-168,20,-29,-109,0
59,503,82,-130,44,9,-56,0
60,507,88,-151,79,87,-5,0
1,876,371,11,-73,-94,-31,0
2,908,275,-109,-160,-56,-57,0
3,906,28,-377,-318,-18,-76,0
4,1382,-569,-64,-712,80,-60,0
5,1408,-602,1143,-1209,-381,-185,0
6,653,298,1436,-1270,-568,-182,0
7,525,1112,1095,-640,-324,-68,0
8,629,1647,1320,503,76,-90,0
9,500,1150,1981,1522,471,-92,0
10,913,140,2003,1743,1037,-179,0
11,2179,-1280,933,1576,1095,-287,0
12,1060,-160,-574,-248,307,-25,0
13,1118,211,-457,-264,-15,2,0
14,965,351,-291,-172,-159,12,0
15,892,405,-168,-37,-169,51,0
16,839,392,-109,80,-126,95,0
17,899,300,-87,115,-66,115,0
18,956,260,-99,56,-41,109,0
19,1016,310,-107,-19,-12,97,0
20,1039,382,-103,-66,-16,82,0
21,1011,426,-85,-83,-29,66,0
22,971,445,-55,-87,-39,45,0
23,925,447,-31,-76,-37,24,0
24,897,423,-40,-51,-15,10,0
25,916,371,-56,-35,-9,5,0
26,914,340,-59,-33,-7,7,0
27,909,335,-69,-37,-3,11,0
28,921,354,-85,-40,6,16,0
29,928,379,-118,-47,8,13,0
30,957,367,-150,-63,10,5,0
31,940,382,-130,-84,-12,-5,0
32,917,416,-125,-76,-1,-13,0
33,936,391,-142,-48,5,-17,0
34,923,366,-157,-28,1,-17,0
35,924,357,-178,-13,7,-15,0
36,931,339,-188,-3,2,-13,0
37,929,327,-193,-3,-2,-8,0
38,927,315,-183,-10,-9,-4,0
39,914,324,-166,-18,-13,0,0
40,908,342,-142,-19,-12,5,0
41,912,350,-126,-14,-8,9,0
42,940,362,-121,-6,0,14,0
43,975,358,-164,0,5,19,0
44,955,369,-216,-2,-3,25,0
45,924,384,-250,-15,-9,25,0
46,922,396,-217,-51,-34,14,0
47,919,426,-137,-84,-49,-5,0
48,903,431,-74,-91,-44,-22,0
49,886,418,-53,-77,-22,-33,0
50,896,395,-64,-52,-5,-37,0
51,867,370,-106,-17,7,-33,0
52,852,318,-160,7,19,-24,0
53,838,285,-186,8,15,-10,0
54,842,291,-199,1,16,5,0
55,849,324,-201,-1,16,17,0
56,866,367,-191,-5,15,25,0
57,845,412,-161,14,18,33,0
58,872,407,-154,34,28,31,0
59,879,410,-167,42,33,32,0
60,897,427,-177,50,36,29,0
1,680,1297,849,374,344,115,0
2,1086,616,740,918,703,5,0
3,1326,175,560,1104,758,-20,0
4,1469,-688,60,1109,871,13,0
5,1621,-1759,-838,687,567,182,0
6,1326,-2139,-1367,-166,352,288,0
7,1653,-766,-524,-998,95,149,0
8,1606,-311,693,-1345,-601,-98,0
9,1552,-828,2103,-1710,-746,-445,0
10,1181,633,1639,-1452,-998,-255,0
11,1379,1872,1210,-460,-533,345,0
12,1104,393,720,-631,-327,-48,0
13,790,804,798,-463,-237,13,0
14,677,1183,652,-106,66,42,0
15,936,1265,495,298,330,-56,0
16,1315,1048,427,640,468,-185,0
17,1634,625,443,864,395,-261,0
18,1548,189,320,886,187,-296,0
19,1364,-226,-25,718,101,-292,0
20,1283,-550,-437,414,-48,-194,0
21,1090,-294,-727,93,-307,-145,0
22,904,-333,-364,-94,-267,-112,0
23,914,-223,-183,-274,-305,-111,0
24,744,-161,-93,-359,-209,-26,0
25,840,34,6,-390,-128,90,0
26,700,393,-23,-327,-144,136,0
27,585,670,-141,-125,-46,126,0
28,682,598,-347,162,36,71,0
29,856,269,-482,315,-3,56,0
30,790,52,-454,320,-64,71,0
31,798,-66,-445,179,-16,96,0
32,854,-36,-391,-3,54,133,0
33,967,150,-318,-155,126,156,0
34,1015,335,-228,-243,158,129,0
35,1057,425,-232,-263,159,80,0
36,1087,435,-298,-209,63,40,0
37,1008,373,-299,-109,-55,37,0
38,949,232,-238,-46,-112,51,0
39,880,133,-180,-73,-130,62,0
40,834,117,-161,-136,-92,78,0
41,892,169,-171,-191,-15,103,0
42,1005,320,-255,-200,15,104,0
43,1024,418,-306,-163,16,91,0
44,937,445,-338,-115,15,73,0
45,881,413,-327,-110,-1,43,0
46,940,342,-273,-123,-12,21,0
47,951,318,-209,-140,-31,33,0
48,1012,383,-160,-139,-36,53,0
49,922,461,-145,-120,-58,59,0
50,888,489,-155,-94,-52,54,0
51,807,523,-166,-60,-27,52,0
52,868,497,-278,-45,-7,29,0
53,936,515,-374,-26,-76,31,0
54,938,553,-351,15,-89,41,0
55,942,561,-268,62,-90,45,0
56,772,581,-263,76,-37,25,0
57,736,481,-294,45,20,-22,0
58,782,419,-274,-21,21,-53,0
59,888,409,-241,-45,71,-71,0
60,999,379,-201,-64,27,-82,0
1,904,213,266,669,-21,997,0
2,1107,477,48,632,-184,1005,0
3,1268,546,249,550,-363,903,0
4,1034,787,734,526,-373,761,0
5,752,591,-5,703,-354,597,0
6,1134,-241,229,672,-346,781,0
7,1856,-15,-358,426,-843,523,0
8,2359,70,264,255,-1209,289,0
9,2367,-1256,434,-145,-1568,-40,0
10,1149,-984,1151,-439,-1373,-501,0
11,-1019,-463,686,-85,-931,-343,0
12,1177,-102,171,-204,228,501,0
13,912,516,92,197,339,520,0
14,1402,426,-103,342,445,264,0
15,1075,434,-86,456,206,66,0
16,988,-446,234,588,259,69,0
17,1326,492,-144,504,30,52,0
18,1407,694,23,943,-197,54,0
19,1318,57,716,1239,-490,309,0
20,831,41,1191,1233,-702,393,0
21,458,-431,1044,1071,-389,346,0
22,581,-800,495,705,-46,253,0
23,856,-545,194,471,2,185,0
24,945,-481,117,354,32,138,0
25,1075,-451,103,317,-48,109,0
26,1147,-132,112,254,-125,54,0
27,696,-303,366,381,-150,33,0
28,756,-217,384,311,76,-35,0
29,1323,-220,-314,335,-21,-257,0
30,1105,-780,204,357,-258,-10,0
31,1060,-384,102,289,-324,-26,0
32,1108,45,413,436,-236,96,0
33,831,-93,794,505,-275,32,0
34,784,-349,665,346,-113,-112,0
35,860,-506,510,131,-26,-103,0
36,885,-80,355,49,29,-50,0
37,1145,-151,278,242,143,0,0
38,1000,-81,421,147,103,-84,0
39,1035,184,312,137,164,-115,0
40,1204,408,340,121,212,-196,0
41,1357,592,185,217,242,-355,0
42,1474,621,289,212,214,-256,0
43,1492,913,386,114,23,-310,0
44,1557,1073,142,231,-88,-330,0
45,1590,909,243,345,-12,-328,0
46,1669,631,298,336,-59,-326,0
47,1411,419,213,262,-126,-350,0
48,1329,137,121,259,-14,-337,0
49,1130,-278,151,251,-10,-282,0
50,935,-545,102,138,-166,-249,0
51,617,-725,183,76,-131,-211,0
52,608,-631,155,-168,-5,-220,0
53,802,69,43,-243,22,-125,0
54,-179,1834,603,-129,-221,30,0
55,114,2137,2477,895,-394,177,0
56,-31,-253,14,166,266,-103,0
57,-300,791,764,-580,227,-278,0
58,494,1112,173,-495,512,-135,0
59,752,1208,-139,-161,322,-131,0
60,521,933,-160,-85,237,-100,0
1,-465,835,2746,-23,179,-9,0
2,-155,723,2198,100,799,-45,0
3,507,683,1772,114,1075,-29,0
4,969,631,784,-40,854,-39,0
5,767,802,-172,-209,561,-101,0
6,603,895,-596,1,343,-138,0
7,137,456,-544,-55,-204,-131,0
8,-225,403,-89,-86,-487,-107,0
9,-260,259,2,-80,-40,-73,0
10,-344,308,391,-102,-168,-46,0
11,-447,420,835,-95,-232,0,0
12,-616,91,734,6,16,-128,0
13,-621,19,743,21,13,-98,0
14,-637,21,748,25,12,-76,0
15,-639,67,755,26,13,-59,0
16,-667,61,724,14,8,-45,0
19,-664,90,713,0,2,-31,0
20,-642,58,708,-1,-6,-28,0
21,-691,71,756,6,-7,-19,0
22,-726,88,796,1,-4,-9,0
23,-714,137,785,-1,6,-21,0
24,-702,113,735,0,9,-27,0
25,-692,128,694,12,2,-25,0
26,-701,141,690,27,-1,-23,0
27,-723,174,675,41,-13,-23,0
28,-744,124,702,65,-31,-5,0
29,-727,160,738,92,-27,0,0
30,-683,119,677,110,-32,4,0
31,-709,192,753,142,-33,15,0
32,-705,154,823,141,-3,7,0
33,-690,222,789,100,13,-10,0
34,-678,199,727,70,24,-22,0
35,-637,216,657,32,4,-39,0
36,-641,162,681,18,-18,-49,0
37,-728,171,774,17,-41,-46,0
38,-739,150,838,26,-29,-31,0
39,-707,93,800,0,-11,-7,0
40,-671,136,766,-18,1,15,0
41,-677,226,782,-27,15,39,0
42,-675,265,787,-38,39,47,0
43,-647,244,698,-43,47,43,0
44,-664,259,684,-40,46,52,0
45,-699,234,732,-25,42,64,0
46,-760,253,786,-7,64,84,0
47,-756,286,740,15,73,111,0
48,-713,235,676,36,91,137,0
49,-697,432,644,49,87,154,0
50,-630,373,517,51,94,153,0
51,-592,498,442,24,76,135,0
52,-611,591,491,20,49,111,0
53,-700,544,547,26,40,99,0
54,-675,568,519,32,49,102,0
55,-538,558,365,8,42,93,0
56,-493,595,343,3,-9,80,0
57,-487,540,331,2,-35,69,0
58,-453,581,325,-11,-69,56,0
59,-517,640,480,2,-87,38,0
60,-541,503,568,6,-66,48,0
1,-174,534,416,-1160,702,-1078,0
2,892,1045,-206,-1122,1257,-601,0
3,1052,166,-1707,-257,166,-214,0
4,657,-106,-1349,-47,-319,90,0
5,254,274,-144,193,-904,345,0
6,548,1069,748,709,-986,640,0
7,508,2083,1542,1513,-712,1043,0
8,139,2053,1989,1743,-17,1102,0
9,1275,43,-936,326,1233,94,0
10,1582,12,-714,-313,-23,-377,0
11,-538,-323,942,-1197,12,-555,0
12,1649,447,337,-283,-218,148,0
13,1728,351,320,-365,-447,34,0
14,1744,292,522,-466,-591,-84,0
15,1674,266,709,-573,-704,-212,0
16,1589,251,786,-642,-690,-297,0
17,1582,230,855,-683,-607,-370,0
18,1499,182,919,-711,-554,-450,0
19,1341,186,882,-719,-450,-521,0
20,1243,223,799,-675,-285,-542,0
21,1198,277,700,-562,-132,-515,0
22,1112,304,597,-393,-29,-440,0
23,1020,300,523,-191,73,-340,0
24,943,274,473,18,152,-239,0
25,878,342,373,219,259,-168,0
26,825,425,226,451,384,-134,0
27,911,201,137,721,609,-128,0
28,1333,-726,-68,734,856,-12,0
29,1478,-1190,-453,408,437,125,0
30,1086,-970,-639,52,206,202,0
31,1228,-347,-655,-149,180,185,0
32,1236,-172,-364,-232,-109,140,0
33,1198,-190,-112,-322,-234,128,0
34,1326,-68,192,-406,-267,166,0
35,1336,156,308,-415,-296,271,0
36,1351,375,292,-368,-165,395,0
37,1504,545,295,-312,-83,439,0
38,1507,703,263,-246,-83,394,0
39,1440,744,208,-169,-70,315,0
40,1393,668,196,-132,-74,238,0
41,1269,598,188,-151,-85,163,0
42,1158,530,174,-186,-69,92,0
43,1065,472,161,-221,-55,41,0
44,982,453,145,-235,-52,13,0
45,942,437,141,-226,-49,3,0
46,896,424,150,-202,-63,4,0
47,836,429,172,-170,-64,13,0
48,800,435,184,-139,-40,21,0
49,826,430,185,-128,-3,21,0
50,864,396,157,-145,32,10,0
51,904,389,84,-201,75,-8,0
52,990,495,0,-217,90,-23,0
53,999,536,-141,-188,53,-41,0
54,981,807,-190,-94,-31,-56,0
55,1410,1012,-835,226,-147,-60,0
56,1096,-746,-1201,225,-506,205,0
57,207,348,-184,22,-218,-49,0
58,711,232,-321,174,310,-69,0
59,1061,275,-283,213,209,-39,0
60,1008,295,-236,239,238,-36,0
1,176,-246,1159,424,-213,154,0
2,1450,820,297,335,223,45,0
3,2046,1042,775,340,-290,-1,0
4,610,580,1177,-119,-535,25,0
5,91,633,972,55,-92,148,0
6,1034,606,139,14,300,11,0
7,538,587,676,-118,140,136,0
8,127,181,1423,-129,383,124,0
9,-19,-276,2143,-224,722,301,0
10,1784,-157,2571,205,1743,898,0
11,3294,-254,2186,646,1743,1118,0
12,-514,26,-195,63,9,-45,0
13,-340,-284,-504,-130,18,38,0
14,-563,-3,-273,-345,-62,254,0
15,-363,160,-147,-474,152,454,0
16,-183,227,135,-601,192,596,0
17,-31,148,496,-687,357,762,0
18,682,205,814,-816,801,837,0
19,1184,710,885,-885,713,518,0
20,1043,1043,628,-822,282,250,0
21,1001,1213,468,-676,78,1,0
22,1226,1312,484,-332,-233,-125,0
23,965,1222,586,135,-567,-114,0
24,760,768,537,522,-490,-85,0
25,1004,429,517,689,-391,-23,0
26,1152,246,648,801,-405,136,0
27,1121,208,723,793,-338,345,0
28,877,389,353,736,-113,446,0
29,1231,382,-8,640,453,423,0
30,1721,427,-151,448,473,353,0
31,1540,463,-343,239,191,241,0
32,1321,343,-466,-12,86,71,0
33,1211,90,-389,-323,2,-80,0
34,1043,47,-207,-624,-55,-155,0
35,919,124,34,-847,-60,-164,0
36,903,320,232,-960,-62,-161,0
37,940,687,325,-894,-116,-168,0
38,1022,724,281,-726,-157,-162,0
39,1046,651,478,-547,-280,-186,0
40,876,497,538,-461,-315,-134,0
41,746,486,607,-386,-161,-91,0
42,851,467,507,-403,7,-81,0
43,985,539,305,-372,10,-73,0
44,984,638,212,-294,-23,-97,0
45,979,518,129,-171,-20,-96,0
46,896,311,30,-190,-73,-77,0
47,933,462,81,-182,-143,-100,0
48,608,383,170,-119,-192,-46,0
49,659,505,90,-71,-32,-26,0
50,791,509,96,-83,-54,-57,0
51,773,612,56,-76,-81,-77,0
52,893,631,112,25,-78,-85,0
53,823,529,75,38,-131,-56,0
54,746,586,152,62,-135,-47,0
55,740,645,112,83,-105,-49,0
56,721,659,120,111,-78,-50,0
57,782,561,69,108,-40,-39,0
58,745,568,135,81,-42,-13,0
59,620,466,238,28,28,37,0
60,554,361,378,-36,183,114,0
1,-491,416,-228,-205,322,-237,0
2,-164,741,-658,-287,367,-275,0
3,19,142,-1250,-94,160,-210,0
4,167,348,-902,-295,0,-243,0
5,502,316,-1110,-291,-158,-369,0
6,689,284,-869,-249,-465,-354,0
7,681,3,-377,-100,-714,-354,0
8,820,-260,149,-105,-885,-360,0
9,949,-560,762,-181,-929,-342,0
10,1517,-1023,1566,-227,-941,-376,0
11,3820,457,3922,239,-1630,-574,0
12,810,547,540,30,-109,-39,0
13,960,419,557,-6,-56,-55,0
14,929,510,485,4,-117,-44,0
15,874,425,387,-17,-20,-44,0
16,954,410,362,-16,-52,-40,0
17,976,311,343,-10,-61,-4,0
18,845,367,316,-35,-35,-12,0
19,1077,351,265,-6,-45,10,0
20,930,278,237,-32,-54,2,0
23,878,320,317,-64,-29,11,0
24,617,353,362,-37,29,34,0
25,664,297,386,0,187,63,0
26,859,261,390,-59,271,62,0
27,1171,443,448,-55,354,35,0
28,1414,750,400,171,273,22,0
29,1205,836,495,499,-27,23,0
30,969,594,690,827,-53,73,0
31,911,300,776,941,-90,174,0
32,820,350,730,922,-164,220,0
33,551,973,1304,1247,-14,267,0
34,361,398,1817,1743,400,516,0
35,625,-847,1907,1743,353,749,0
36,760,-1595,990,1549,71,658,0
37,942,-1706,-142,863,7,303,0
38,1060,-684,-228,221,163,101,0
39,1225,-236,263,111,123,6,0
40,867,-635,279,58,-96,-81,0
41,792,-531,309,-82,19,-67,0
42,963,-295,324,-63,34,-40,0
43,991,-258,310,28,-16,-4,0
44,927,-367,403,90,-52,8,0
45,856,-399,395,109,-32,7,0
46,862,-430,409,87,-9,-5,0
47,921,-401,393,88,-3,10,0
48,916,-370,418,101,-1,9,0
49,865,-454,442,63,3,-4,0
50,897,-399,390,-10,15,-14,0
51,886,-288,426,-22,0,-19,0
52,878,-284,428,-11,-17,-31,0
53,891,-306,432,-13,8,-19,0
54,949,-282,360,-17,9,-5,0
55,927,-189,398,-5,7,0,0
56,946,-271,399,8,2,-1,0
57,896,-251,426,-31,-12,-5,0
58,905,-314,456,4,2,24,0
59,824,-653,557,-97,3,51,0
60,978,-611,338,-231,-111,99,0
1,738,-321,321,-484,-118,5,0
2,641,-399,888,-995,37,-11,0
3,702,648,1176,-1392,255,-191,0
4,993,1182,771,-982,94,-309,0
5,1061,1104,557,-347,-92,-338,0
6,833,314,708,305,-139,-186,0
7,510,3,773,571,7,-43,0
8,764,-192,551,625,317,44,0
9,964,-132,373,562,241,136,0
10,803,-10,120,475,242,180,0
11,819,3922,-2008,370,-200,-645,0
12,664,625,117,323,51,-44,0
13,496,674,218,517,24,-15,0
14,676,554,147,633,60,9,0
15,603,297,213,786,-27,21,0
16,713,148,19,669,22,-54,0
17,726,44,-51,597,-28,-46,0
18,696,-75,-237,425,19,-103,0
19,682,49,-410,291,56,-94,0
20,691,103,-532,240,134,-110,0
21,767,41,-578,206,164,-128,0
22,710,-245,-653,90,227,-149,0
23,288,-2107,-1909,-391,121,121,0
24,941,-241,-2267,-877,349,126,0
25,912,-148,-930,-448,-104,210,0
26,664,279,-321,-629,1,156,0
27,569,483,-327,-501,91,180,0
28,839,625,-461,-440,203,121,0
29,1001,498,-300,-281,82,71,0
30,962,450,-252,-204,-57,6,0
31,1002,298,-140,-155,-80,10,0
32,1014,251,-35,-164,-147,42,0
35,907,494,216,-277,-91,100,0
36,853,717,214,-136,-64,85,0
37,882,781,88,93,12,65,0
38,933,673,-98,304,15,62,0
39,874,500,-281,421,-110,57,0
40,728,341,-240,377,-85,20,0
41,657,261,-147,297,0,-69,0
42,815,101,-291,174,158,-104,0
43,1644,-132,-3031,-174,-217,-140,0
44,238,218,-396,220,-146,82,0
45,730,-30,-189,-132,228,-60,0
46,895,205,-447,-94,31,-69,0
47,864,252,-569,-69,21,-20,0
48,863,256,-417,-3,-47,35,0
49,876,293,-232,7,-98,26,0
50,812,292,-105,21,-63,27,0
51,910,339,-159,66,41,30,0
52,819,261,-237,129,90,49,0
53,700,211,-146,98,204,54,0
54,630,231,-98,41,319,3,0
55,843,24,-322,-27,463,-24,0
56,2485,-43,-2795,-94,-4,-78,0
57,436,-111,470,147,-62,110,0
58,1193,204,-114,-115,166,-23,0
59,1065,8,-180,-133,-48,-12,0
60,1132,223,-335,-105,-174,8,0
1,382,-36,964,85,-539,-39,0
2,144,30,553,-186,175,-56,0
3,822,156,435,-388,762,-94,0
4,654,160,-455,15,15,36,0
5,736,97,-408,43,128,18,0
6,881,42,-492,9,68,2,0
7,727,124,-423,-14,62,-6,0
8,580,227,-190,-43,162,-54,0
9,578,287,217,-100,410,-117,0
10,1093,201,284,-154,732,-137,0
11,1970,850,4,-247,666,-102,0
12,720,232,-157,64,-286,-55,0
13,583,175,-147,104,-204,-26,0
14,586,72,-200,48,-38,-3,0
15,523,194,-128,-16,22,-5,0
16,207,333,44,20,262,-32,0
17,451,214,189,-41,690,-91,0
18,1061,190,569,-171,1047,-103,0
19,2475,49,-340,-531,1112,89,0
20,1731,1387,-381,-63,-554,-23,0
21,509,292,194,141,-462,71,0
22,898,556,316,137,0,71,0
23,1023,473,307,175,-204,-19,0
24,757,327,74,224,-105,-41,0
25,918,233,8,166,53,-31,0
26,924,272,4,90,9,-38,0
27,901,303,0,34,41,-47,0
28,909,366,-21,29,33,-60,0
29,885,347,17,57,21,-65,0
30,882,289,55,80,20,-68,0
31,956,212,64,90,46,-62,0
32,1095,181,42,90,73,-33,0
33,1198,217,0,86,63,19,0
34,1145,322,-26,72,8,56,0
35,1042,372,-23,34,-35,50,0
36,961,394,-27,-2,-88,7,0
37,912,392,-130,3,-151,-27,0
38,947,363,-166,80,-176,-32,0
39,972,271,-67,209,-161,37,0
40,936,218,0,317,-199,42,0
41,735,48,92,303,-31,8,0
42,704,1,237,219,154,-29,0
43,487,22,593,136,500,-61,0
44,995,90,678,-97,1099,-124,0
45,1966,345,310,-311,1160,-255,0
46,2279,605,-283,-235,434,-157,0
47,1147,1041,10,4,-591,8,0
48,928,281,172,204,-279,64,0
49,1165,384,384,197,-343,1,0
50,918,95,259,134,-422,-26,0
51,731,18,162,-25,-201,9,0
52,838,170,122,-180,-42,18,0
53,936,295,101,-238,-9,12,0
54,997,402,96,-235,-15,8,0
55,1065,489,113,-167,-29,0,0
56,1092,502,138,-62,-56,4,0
57,1058,445,157,7,-69,9,0
58,1029,364,156,5,-73,-1,0
59,1006,379,96,-20,-78,-22,0
60,925,406,59,5,-96,-35,0
1,883,328,-42,-77,-19,-19,0
2,894,288,-73,-20,-17,0,0
3,540,559,-44,-118,-201,189,0
4,687,508,-183,-27,-14,152,0
5,886,456,-350,20,-15,117,0
6,892,406,-406,54,-39,114,0
7,917,239,-382,-10,-39,89,0
8,963,334,-414,-120,-133,44,0
9,855,273,-326,-138,-124,69,0
10,1023,163,-430,-260,-158,102,0
11,844,74,-315,-463,-212,160,0
14,762,343,-421,-20,16,-31,0
15,921,377,-500,-8,-1,-27,0
16,719,339,-407,-4,-16,-37,0
17,863,295,-480,5,1,-1,0
18,787,247,-459,14,-27,24,0
19,727,171,-437,-19,-21,46,0
20,869,291,-542,-100,0,53,0
21,725,352,-431,-63,-47,22,0
22,689,280,-334,-129,27,-8,0
23,989,254,-408,-202,49,-3,0
24,613,544,-91,-320,3,-89,0
25,388,307,78,-346,195,-67,0
26,423,385,336,-490,425,-8,0
27,856,672,578,-275,767,121,0
28,1382,444,921,-101,840,349,0
29,1674,771,704,69,773,241,0
30,1277,466,571,300,441,186,0
31,908,-33,672,298,378,243,0
32,869,242,635,251,446,273,0
33,958,397,431,374,333,332,0
34,806,97,577,442,244,390,0
37,960,4,391,432,78,603,0
38,1051,70,294,496,4,696,0
39,1101,26,159,482,-123,755,0
40,1121,9,324,424,-186,772,0
41,1005,-40,470,416,-205,723,0
42,976,40,496,407,-187,638,0
43,938,-178,515,378,-154,520,0
44,856,-223,347,347,-184,391,0
45,771,-336,604,309,-124,317,0
46,761,-193,645,421,-83,275,0
47,875,-374,439,530,-98,228,0
48,751,-383,704,479,-157,201,0
49,787,-260,767,532,-152,166,0
50,775,-750,701,347,-139,139,0
51,833,-309,622,272,-126,64,0
52,611,-631,902,225,-81,79,0
53,569,-527,781,114,80,85,0
54,548,-448,814,44,180,58,0
55,765,-412,614,12,273,32,0
56,780,-299,677,-40,199,-38,0
57,759,-251,782,-55,270,-111,0
58,838,-411,657,-64,235,-145,0
59,777,-450,788,-153,241,-201,0
60,727,-665,735,-326,223,-299,0
1,1333,13,419,-133,-587,16,0
2,1566,-56,390,-373,-332,49,0
3,1488,27,658,-499,-382,65,0
4,1182,498,573,-468,-401,113,0
5,1160,764,409,-287,-227,131,0
6,823,646,89,-20,-21,-9,0
7,802,585,104,0,6,-36,0
8,783,534,110,17,22,-48,0
9,776,518,89,38,46,-52,0
10,802,507,54,63,78,-57,0
11,846,500,-6,98,92,-54,0
12,623,-434,-811,-467,-32,184,0
13,630,-239,-711,-738,-93,270,0
16,660,697,-367,-508,-93,300,0
17,704,419,-482,-444,-76,253,0
18,744,471,-380,-506,-116,241,0
19,710,548,-353,-377,-111,206,0
20,585,301,-189,-426,22,237,0
21,1040,726,-406,-377,118,215,0
22,732,568,67,-299,-64,106,0
23,183,286,172,-296,16,142,0
24,918,544,132,-156,485,179,0
25,1102,561,227,-42,376,188,0
26,951,639,267,58,313,167,0
27,630,299,668,170,400,211,0
28,1078,55,650,199,805,269,0
29,1692,183,520,180,572,279,0
30,1034,379,573,205,333,227,0
31,969,149,631,207,328,198,0
32,799,99,684,223,234,203,0
33,825,-188,984,229,248,290,0
34,615,160,882,219,250,398,0
35,904,190,425,450,189,481,0
36,718,221,481,404,-34,512,0
37,828,264,544,344,-123,494,0
38,759,281,652,338,-157,504,0
39,824,313,539,324,-180,495,0
40,939,218,478,260,-229,474,0
41,1069,343,406,299,-323,479,0
42,1136,510,346,372,-438,413,0
43,1270,200,301,315,-604,327,0
44,1318,180,267,268,-754,203,0
45,1263,80,264,334,-723,122,0
46,804,39,501,304,-486,62,0
47,1244,-150,-169,380,-385,-75,0
48,584,-579,28,416,-356,129,0
49,169,-508,260,167,230,97,0
50,589,-232,270,228,753,53,0
51,1325,-418,202,174,782,-188,0
52,1217,-795,-66,37,505,-215,0
53,1179,-656,135,-36,372,-160,0
54,939,-218,394,-61,348,-174,0
55,977,-557,305,-38,316,-190,0
56,1094,-46,-40,-131,123,-305,0
57,834,-231,787,-149,57,-366,0
58,887,-16,664,-254,253,-433,0
59,1075,-54,402,-298,172,-551,0
60,1041,158,424,-367,154,-584,0
1,755,359,655,735,-116,210,0
2,908,495,762,1070,-221,296,0
3,883,707,1120,1244,-415,320,0
4,245,665,1336,1437,-381,182,0
5,427,-278,171,1232,129,-52,0
6,1230,-1235,-779,796,51,-34,0
7,964,-1892,-850,-103,-357,107,0
8,902,-1832,351,-1455,-69,274,0
9,1475,-364,1947,-1743,25,238,0
10,1585,295,2493,-1743,-473,385,0
11,1018,1635,2056,-1213,-416,759,0
12,259,-163,276,24,-103,-7,0
13,826,-422,-343,-301,167,-114,0
14,1279,-448,-772,-428,-70,37,0
15,803,-421,-107,-691,-168,176,0
16,898,-282,168,-1006,4,191,0
17,1040,179,444,-1174,30,252,0
18,827,462,573,-1047,83,372,0
19,1038,748,558,-906,250,305,0
20,1002,743,532,-755,251,141,0
21,1154,1205,410,-457,182,-12,0
22,877,789,557,-14,154,-117,0
23,978,314,736,327,390,-70,0
24,1139,448,681,590,274,66,0
25,901,572,963,1053,133,208,0
26,893,2,1141,1360,74,404,0
27,771,31,929,1346,-106,485,0
28,798,-173,330,1196,-60,394,0
29,1018,-753,-416,762,-130,286,0
30,903,-741,-448,76,-217,84,0
31,978,-486,-169,-387,-255,-40,0
32,778,-89,155,-622,-248,-122,0
33,841,69,85,-766,-32,-205,0
34,1047,-166,12,-775,-94,-10,0
35,1119,364,48,-920,-50,49,0
36,1132,557,22,-815,-196,56,0
37,875,416,315,-888,-325,24,0
38,551,189,344,-1198,-172,23,0
39,788,843,966,-1235,140,-2,0
40,837,1289,701,-748,-97,-25,0
41,801,990,551,-341,182,-88,0
42,1080,277,689,-9,179,-44,0
43,622,87,770,212,135,82,0
44,753,571,876,610,491,173,0
45,860,267,1213,1156,489,342,0
46,646,-367,1466,1499,511,578,0
47,865,-410,1191,1410,356,751,0
48,884,-240,719,1304,219,805,0
51,1046,-537,-651,259,-249,113,0
52,1157,-356,11,-219,-468,-96,0
53,1121,-899,239,-730,-499,-351,0
54,660,-1108,711,-1360,-307,-310,0
55,874,91,887,-1734,17,-138,0
56,1193,631,1007,-1659,-50,-166,0
57,1033,845,1046,-1351,-504,-105,0
58,566,1391,808,-747,-430,48,0
59,593,1095,424,-188,29,69,0
60,954,952,544,232,144,6,0
1,153,65,1381,-52,324,110,0
2,1150,302,1228,264,1220,284,0
3,1758,145,984,531,690,376,0
4,897,-107,736,634,546,415,0
5,1121,87,671,789,485,541,0
6,910,-289,246,898,210,711,0
7,1115,510,-121,942,-103,815,0
8,1360,2232,26,1333,-492,734,0
9,1040,1394,1194,1743,-703,518,0
10,1595,-187,803,1330,-810,279,0
11,1327,-1462,639,169,-1312,-42,0
12,1003,403,-313,741,248,-656,0
13,1358,53,-262,741,219,-858,0
14,1096,-1422,298,1044,244,-489,0
15,257,-2486,818,684,170,62,0
16,360,-1580,357,101,570,-79,0
17,955,-733,467,-33,890,-1,0
18,1275,-361,221,26,506,-103,0
19,1125,-629,247,76,488,-65,0
20,1289,-258,399,60,511,-148,0
21,1049,-581,701,38,430,-173,0
22,870,-614,625,-285,518,-279,0
23,1082,-270,634,-469,538,-319,0
24,1049,4,249,-427,354,-483,0
25,953,-171,431,-571,333,-604,0
26,1078,-291,233,-506,235,-584,0
27,1019,-99,285,-470,145,-491,0
28,1012,-212,333,-445,-6,-463,0
29,1029,-103,391,-462,-40,-470,0
30,1010,-138,312,-511,-137,-492,0
31,1060,-210,312,-574,-210,-524,0
32,1128,-305,373,-646,-333,-509,0
33,1139,-226,534,-710,-402,-543,0
34,977,-541,836,-825,-432,-486,0
35,973,-276,837,-915,-414,-408,0
36,964,-46,811,-900,-416,-343,0
37,1034,-29,713,-794,-385,-236,0
38,1031,124,644,-754,-439,-220,0
39,1303,271,162,-738,-601,-131,0
40,1243,309,363,-493,-713,33,0
41,944,428,381,-332,-642,136,0
42,507,452,351,-336,-447,78,0
43,929,714,253,-263,-201,35,0
44,697,722,336,-178,-273,-48,0
45,84,368,528,-149,251,63,0
46,425,80,872,-174,612,215,0
47,1140,459,1189,183,1065,426,0
48,1972,105,1134,726,1162,510,0
49,1687,-268,502,787,534,516,0
50,798,276,503,929,232,574,0
51,778,-144,676,1146,357,763,0
52,920,-404,530,1014,275,954,0
53,959,-115,476,836,218,946,0
54,1420,445,-104,438,123,724,0
55,1359,886,289,447,-45,700,0
56,1364,325,263,610,-164,443,0
57,1012,547,438,650,-360,684,0
58,973,336,490,671,-338,580,0
59,1056,-32,322,324,-388,280,0
60,1041,240,346,102,-380,100,0
1,1389,656,583,-1185,-387,454,0
2,865,1315,681,-633,-721,365,0
3,226,1306,-25,-265,-347,339,0
4,810,1115,-35,-120,41,115,0
5,832,987,-189,-10,-87,-115,0
6,789,455,-141,83,61,-185,0
7,593,189,-149,51,63,-126,0
8,355,20,207,-36,244,40,0
9,-198,50,1465,-197,591,263,0
10,1841,-231,1453,212,1689,638,0
11,2919,-159,1103,509,1174,681,0
12,1001,-223,-604,341,-281,-122,0
13,983,-40,-807,156,-426,-224,0
14,513,-115,-530,213,-448,-253,0
15,647,-232,-662,145,-286,-264,0
16,499,-261,-621,58,-346,-237,0
17,32,-73,-584,138,-146,-202,0
18,234,-250,-554,64,180,-138,0
19,248,-14,-418,-54,373,-122,0
20,633,37,-431,242,600,-91,0
21,1153,-382,-290,271,580,-35,0
22,1026,-336,-333,164,399,-9,0
23,1102,-127,-373,105,317,-53,0
24,1218,-115,-307,79,132,-116,0
25,1085,-226,-166,78,-24,-94,0
26,868,-88,-53,43,59,-125,0
27,1024,45,-264,-17,38,-181,0
28,1138,157,-453,91,-66,-194,0
29,1144,294,-404,333,-201,-146,0
30,926,178,-144,525,-253,-129,0
31,783,122,66,472,-116,-155,0
32,885,-171,42,269,117,-374,0
33,1009,182,-116,289,73,-164,0
34,921,-286,-267,474,206,-78,0
35,1166,-326,-500,330,79,-33,0
36,888,-242,-193,102,-61,-70,0
37,905,-32,-167,67,35,-73,0
38,872,-163,-334,105,160,-16,0
39,1072,-201,-359,-151,87,-20,0
40,1116,-275,-391,-368,-134,-29,0
41,938,-351,-279,-609,-235,88,0
42,845,-498,-70,-863,-156,111,0
43,1223,93,-284,-838,-94,223,0
44,1100,114,-80,-618,-131,269,0
45,772,341,188,-623,-145,1,0
46,905,280,-63,-456,118,-56,0
47,1207,263,-116,-215,156,113,0
48,955,538,-189,-62,39,31,0
49,1115,283,-354,104,69,-29,0
50,990,10,-408,121,-38,9,0
51,976,42,-439,71,-38,9,0
52,964,10,-496,46,-89,5,0
53,996,25,-458,9,-146,2,0
54,848,40,-294,4,-176,17,0
55,677,151,-28,1,-55,55,0
56,953,-229,-246,-183,132,30,0
57,1099,7,-337,-263,30,145,0
58,1015,213,-276,-303,-6,106,0
59,1032,197,-178,-267,-49,102,0
60,961,221,-101,-276,-96,82,0
1,1020,848,103,-693,-185,-187,0
2,1063,941,220,-239,-146,-104,0
3,1056,882,487,227,-215,-7,0
4,804,781,615,574,-181,12,0
5,797,625,670,802,13,-39,0
6,777,483,480,904,114,-114,0
7,911,-72,115,869,308,-155,0
8,1151,104,-84,-1004,217,-144,0
9,1088,831,7,-1029,-44,-249,0
10,1201,910,207,-581,-339,-253,0
11,1348,994,634,18,-480,-172,0
12,631,-1441,45,864,429,-123,0
13,958,-1823,-55,-578,417,-173,0
14,1034,190,441,-1343,543,-78,0
15,1464,1291,45,-1209,143,-193,0
16,1366,1504,252,-532,-371,-182,0
17,1263,1896,949,481,-460,-161,0
18,459,1156,1408,1243,-347,38,0
19,240,-242,662,1248,-14,-44,0
20,699,-1856,-140,250,321,-87,0
21,831,-878,25,-1035,474,-133,0
22,1123,802,541,-1281,494,-176,0
23,1462,1469,162,-787,-165,-232,0
24,1382,1591,401,-64,-407,-188,0
25,1046,1406,1193,824,-428,-50,0
26,236,830,1306,1278,-311,46,0
27,504,-205,593,1170,257,-162,0
28,907,-1930,-208,293,232,-80,0
29,695,-1036,-32,-1070,494,-138,0
30,1197,752,626,-1318,555,-206,0
31,1467,1360,231,-934,-289,-338,0
32,1401,2036,429,-70,-499,-303,0
33,985,1889,1768,1274,-349,-21,0
34,87,599,1898,1743,-205,179,0
35,532,-1259,517,1251,92,-85,0
36,657,-2393,-179,-256,271,-267,0
37,757,-425,496,-1494,827,-203,0
38,1320,1163,777,-1478,587,-338,0
39,1299,1478,215,-1020,-311,-457,0
40,1328,1466,229,-202,-380,-332,0
41,1442,1189,1131,644,-463,-119,0
42,389,1036,1682,1256,-584,112,0
43,-17,382,1319,1376,-37,-32,0
44,879,-563,378,1038,541,-254,0
45,1172,-2005,-295,105,297,-126,0
46,858,-530,-97,-1102,577,-92,0
47,1361,894,305,-1188,489,-199,0
48,1256,1099,143,-1000,-315,-385,0
49,1112,1061,274,-511,-359,-341,0
50,1304,927,703,64,-413,-210,0
51,752,830,1053,531,-519,-13,0
52,279,652,1056,814,-160,0,0
53,487,392,660,823,329,-111,0
54,1078,-241,111,630,594,-120,0
55,1183,-445,-315,126,383,-85,0
56,1112,-60,-553,-340,383,-31,0
57,1264,392,-464,-562,234,-108,0
58,1151,506,-102,-612,-213,-232,0
59,1122,525,187,-476,-391,-243,0
60,1180,568,534,-238,-451,-158,0
1,258,-3,575,649,-57,-32,0
2,589,-632,118,17,391,-108,0
3,1006,-272,48,-676,575,-80,0
4,1312,644,220,-901,456,-87,0
5,1299,1233,79,-595,0,-80,0
6,1562,1649,512,-49,-139,-51,0
7,1810,1330,1466,474,-360,24,0
8,646,533,1395,679,-590,-185,0
9,-105,-265,749,220,73,-399,0
10,479,505,1006,118,79,38,0
11,792,332,618,16,418,-5,0
12,1103,545,234,-254,529,-63,0
13,928,718,-61,-186,263,-96,0
14,835,387,-74,-112,70,-157,0
15,857,170,135,-91,-175,-109,0
16,885,257,363,-10,-286,-36,0
17,1142,310,644,96,-301,15,0
18,1212,476,1043,216,-382,105,0
19,636,583,1007,260,-345,169,0
20,486,286,640,108,134,77,0
21,867,333,435,-217,359,-87,0
22,862,485,192,-352,268,-126,0
23,921,430,76,-267,209,-149,0
24,1247,369,365,-143,-26,-72,0
25,1560,625,1199,26,-300,52,0
26,739,712,1468,199,-538,31,0
27,83,358,1243,249,-42,-72,0
28,559,152,833,73,604,-27,0
29,909,362,488,-81,617,1,0
30,853,652,151,-75,441,-12,0
31,657,559,-42,3,264,-69,0
32,727,129,-205,2,167,-84,0
33,916,-25,-5,-113,-112,-75,0
34,1070,171,350,-106,-363,-54,0
35,1422,260,772,-3,-465,-8,0
36,1496,479,1322,139,-642,88,0
37,840,654,1460,277,-611,166,0
38,107,445,1150,228,-208,92,0
39,643,279,648,-46,555,-76,0
40,1162,371,403,-185,510,-84,0
41,1106,500,138,-139,264,-44,0
42,1136,536,297,-51,39,-1,0
43,924,593,597,58,-233,11,0
44,614,492,783,124,-206,24,0
45,541,412,810,117,-14,19,0
46,733,424,678,75,130,13,0
47,849,503,536,62,136,8,0
48,805,538,440,98,120,-2,0
49,814,441,375,118,100,-16,0
50,794,334,321,73,54,-26,0
51,757,345,290,11,27,-20,0
52,745,389,261,-21,3,-12,0
53,759,398,228,-35,-9,-1,0
54,913,377,221,-68,-39,-1,0
55,1482,413,301,-145,-191,-52,0
56,1313,455,1205,-208,-419,-55,0
57,543,881,1421,-53,-271,4,0
58,534,849,1190,226,291,-62,0
59,903,301,902,422,519,-75,0
60,562,55,509,359,440,68,0
1,974,332,336,-498,-205,4,0
2,1109,580,322,-445,-194,-21,0
3,1330,893,63,-214,-310,-59,0
4,1549,961,-221,106,-648,-74,0
5,936,512,148,373,-682,-24,0
6,583,225,171,152,-467,-165,0
7,138,174,404,10,-215,-293,0
8,-170,87,559,-172,308,-316,0
9,-375,-401,826,-747,1037,-91,0
10,3365,2323,-720,-972,1743,-71,0
11,2874,1352,-790,-54,-407,-195,0
12,931,320,70,311,-22,43,0
13,918,314,20,191,29,11,0
14,968,456,63,123,47,-19,0
15,856,818,293,259,69,-51,0
16,929,742,339,565,208,-42,0
17,1035,443,284,838,188,41,0
18,1109,-82,37,938,131,142,0
19,1006,-728,-200,794,-43,303,0
20,965,-651,-447,475,-294,235,0
21,792,-673,-236,223,-445,137,0
22,758,-619,-246,-141,-304,126,0
23,1013,-241,-401,-296,-166,167,0
24,954,75,-585,-286,-230,150,0
25,924,154,-717,-253,-167,99,0
26,743,127,-632,-108,-259,15,0
27,769,-300,-775,-74,-167,-36,0
28,806,-753,-897,-275,-347,-71,0
29,337,-701,-611,-516,-427,-54,0
30,237,-745,-526,-429,-278,377,0
31,591,-775,-509,-642,-171,799,0
32,1255,-299,-55,-952,-89,975,0
33,1512,579,148,-1103,-292,874,0
34,1257,1364,214,-803,-444,759,0
35,355,1139,82,-577,-293,543,0
36,816,899,-302,-528,-32,345,0
37,601,665,24,-511,-83,262,0
38,347,299,75,-438,17,334,0
39,1011,532,51,-484,147,338,0
40,323,426,933,-453,148,403,0
41,1074,514,911,-268,852,484,0
42,1745,687,826,-65,792,441,0
43,1442,506,790,226,742,370,0
44,1450,50,738,378,717,347,0
45,1208,145,457,365,440,285,0
46,829,230,605,387,364,305,0
47,833,172,539,454,281,380,0
48,560,-40,643,467,208,473,0
49,686,203,601,455,194,587,0
50,747,304,536,545,118,713,0
51,856,369,434,523,6,799,0
52,845,366,478,496,-73,814,0
53,911,389,451,482,-135,793,0
54,962,402,517,482,-136,778,0
55,1025,250,402,507,-155,727,0
56,1039,156,258,451,-210,602,0
57,1053,-53,118,338,-295,450,0
58,1087,-203,91,188,-400,262,0
59,1077,-308,100,-3,-449,51,0
60,1033,-450,91,-149,-412,-94,0
1,1329,903,-176,-51,142,-10,0
2,1418,703,-228,92,99,-118,0
3,409,-110,-75,56,-72,-103,0
4,326,-6,-111,6,8,-46,0
5,407,41,-135,-16,64,-8,0
6,460,19,-140,-42,38,23,0
7,538,42,-130,-70,45,63,0
8,681,92,-112,-89,47,97,0
9,836,118,-100,-108,47,126,0
10,1023,144,-103,-136,56,155,0
11,1240,203,-89,-176,61,173,0
12,914,309,-92,-16,-17,-8,0
13,934,392,-77,8,-13,6,0
14,925,452,-81,37,3,8,0
15,1003,519,-117,60,31,10,0
16,1080,605,-150,82,25,-5,0
17,1159,705,-110,113,23,-33,0
18,1213,803,-25,147,-23,-57,0
19,992,765,-39,184,-58,-130,0
20,808,364,-103,197,-101,-231,0
21,422,-200,-184,145,-182,-210,0
22,159,-243,-327,61,-68,-66,0
23,333,-56,-393,7,88,22,0
24,478,-50,-423,-46,48,61,0
25,496,-85,-440,-118,46,96,0
26,734,-315,-537,-204,120,139,0
27,1316,-929,-345,-459,157,198,0
28,1962,-1479,1010,-1169,41,240,0
29,2222,193,2360,-1698,-253,-36,0
30,1479,2588,1724,-1016,-966,63,0
31,-67,2822,661,282,-531,92,0
32,653,1022,681,1065,786,-249,0
33,1788,-901,665,952,634,118,0
34,1011,-755,89,436,-468,-48,0
35,593,-108,-227,101,-65,15,0
36,1095,286,-71,-24,223,46,0
37,1168,504,69,-114,-130,-55,0
38,885,570,83,-83,-59,-117,0
39,1027,473,52,-12,89,-120,0
40,1062,493,-22,36,85,-112,0
41,1212,576,-25,102,155,-107,0
42,1441,657,127,182,127,-110,0
43,1103,435,151,256,-21,-156,0
44,554,-40,-28,153,-5,-213,0
45,168,-409,-368,-92,160,-170,0
46,131,-459,-576,-404,585,-103,0
47,838,-317,-697,-646,764,-106,0
48,1262,65,-674,-868,250,-243,0
49,1463,-52,-91,-757,-559,-391,0
50,2647,-268,1804,-669,-708,-598,0
51,2833,802,2723,-152,-1603,-212,0
52,201,1893,2436,683,-1490,303,0
53,-660,1020,1737,1012,-142,78,0
54,956,579,867,630,1144,-327,0
55,2182,161,662,513,1104,-459,0
56,1839,-218,-48,285,384,-307,0
57,1253,79,-335,134,212,-120,0
58,1276,357,-227,183,100,-31,0
59,1053,309,-67,217,-195,-32,0
60,856,211,86,191,-190,-37,0
1,1101,-478,-694,-206,99,9,0
2,1119,-263,-474,-559,-71,-82,0
3,1040,-137,-17,-799,-314,-151,0
4,1094,-76,489,-912,-439,-202,0
5,1187,123,832,-910,-529,-184,0
6,1187,566,1006,-663,-574,-72,0
7,980,1165,1142,-161,-539,34,0
8,466,1474,1243,515,-303,66,0
9,136,1042,1550,1083,238,-10,0
10,1134,75,1502,1275,1117,-52,0
11,2099,-539,894,950,687,-36,0
12,1261,-52,166,774,396,-10,0
13,1178,-466,-218,520,311,54,0
14,1105,-328,-406,140,131,109,0
15,1073,-6,-435,-142,-22,68,0
16,1059,63,-149,-353,-161,-19,0
17,1034,104,137,-514,-258,-71,0
18,1004,260,309,-565,-270,-57,0
19,972,481,393,-481,-226,-7,0
20,914,646,372,-315,-146,25,0
21,872,710,294,-125,-44,18,0
22,913,589,178,32,38,-10,0
23,945,418,72,99,48,-28,0
24,928,317,16,103,44,-25,0
25,914,211,-8,64,29,-19,0
28,916,318,104,-73,45,43,0
29,939,344,105,-55,6,43,0
30,961,356,99,-32,-6,47,0
31,972,337,96,-31,-42,48,0
32,952,339,114,-72,-49,46,0
33,941,418,136,-101,-27,56,0
34,962,513,138,-88,-1,64,0
35,979,581,109,-36,21,61,0
36,989,601,81,27,24,53,0
37,979,597,30,81,30,42,0
38,996,552,-13,120,36,26,0
39,980,499,-38,121,25,5,0
40,958,480,-57,109,33,-6,0
41,961,469,-61,119,25,-15,0
42,967,436,-66,136,22,-16,0
43,985,398,-54,141,8,-16,0
44,986,380,-13,128,-7,-22,0
45,981,385,25,115,-15,-28,0
46,998,402,54,112,-15,-34,0
47,1007,395,73,114,-21,-40,0
48,1001,376,104,106,-24,-47,0
49,976,362,132,94,-24,-56,0
50,964,350,162,83,-19,-65,0
51,934,346,189,78,-10,-71,0
52,913,342,195,81,3,-73,0
53,882,309,149,86,24,-71,0
54,934,240,84,60,43,-67,0
55,913,247,101,17,17,-59,0
56,870,326,129,15,27,-47,0
57,916,307,67,29,61,-33,0
58,933,268,29,-4,32,-28,0
59,927,187,-16,-95,60,-26,0
60,1302,383,-350,-255,-55,-111,0
1,896,-83,-13,-122,-261,130,0
2,927,-65,36,-166,-216,177,0
3,1045,-68,97,-227,-204,214,0
4,1086,-12,224,-286,-226,230,0
5,1129,14,259,-353,-197,283,0
6,1217,897,342,-408,-311,183,0
7,945,907,429,-407,-269,65,0
8,770,799,444,-354,-186,-14,0
9,697,677,460,-282,-127,-48,0
10,618,593,492,-202,-106,-43,0
11,555,550,515,-115,-51,-15,0
12,2562,418,547,682,441,-424,0
13,2778,272,687,778,344,-450,0
14,2572,-30,649,827,158,-486,0
15,2126,-435,465,771,64,-497,0
16,1648,-815,207,552,-78,-429,0
17,1049,-888,16,264,-171,-315,0
18,741,-687,-64,21,-98,-225,0
19,577,-526,-98,-96,-61,-148,0
20,466,-419,-140,-126,-26,-43,0
21,458,-298,-156,-107,21,67,0
22,572,-216,-157,-89,50,167,0
23,753,-143,-127,-100,74,249,0
24,998,-13,-95,-123,66,306,0
25,1182,89,54,-158,25,360,0
26,1284,152,175,-211,30,403,0
27,1505,195,220,-302,29,421,0
28,1649,270,353,-375,-34,419,0
29,1747,390,463,-404,-46,414,0
30,1850,433,466,-373,-41,417,0
33,2044,599,339,-273,-66,401,0
34,1930,666,303,-209,-124,366,0
35,1735,621,219,-110,-134,318,0
36,1362,456,60,-27,-160,299,0
37,1072,397,-44,26,-122,289,0
38,958,293,4,69,-56,243,0
39,916,264,9,59,-9,206,0
40,877,335,-90,48,-1,188,0
41,803,429,-121,52,37,155,0
42,802,483,-125,74,74,110,0
43,809,437,-177,96,79,45,0
44,887,383,-224,104,74,-30,0
45,933,299,-150,115,54,-98,0
46,1092,244,-63,115,74,-163,0
47,1299,344,38,119,65,-243,0
48,1511,330,26,158,68,-336,0
49,1813,152,107,197,53,-420,0
50,1945,-14,206,198,-42,-487,0
51,1942,-130,185,138,-70,-525,0
52,1855,-165,150,94,-129,-514,0
53,1631,-263,135,51,-180,-509,0
54,1350,-416,142,-4,-214,-484,0
55,1066,-465,103,-53,-204,-426,0
56,870,-474,56,-61,-139,-321,0
57,708,-465,74,-18,-106,-198,0
58,671,-505,40,10,-41,-74,0
59,776,-456,68,6,23,44,0
60,850,-397,66,-24,62,149,0
1,522,-309,245,248,176,97,0
2,540,-275,194,253,345,191,0
3,814,-353,162,267,571,252,0
4,1300,-603,126,288,802,354,0
5,1906,-954,50,235,898,520,0
6,2488,-959,53,88,762,687,0
7,2867,-544,-55,-64,489,777,0
8,2855,-80,-69,-100,172,797,0
9,2770,378,-12,-128,-129,751,0
10,2130,783,184,-36,-384,631,0
11,1373,964,202,45,-463,389,0
12,1761,-327,356,-132,-336,-695,0
13,1378,-422,244,-134,-228,-550,0
14,1075,-559,151,-139,-139,-421,0
15,840,-631,67,-131,-69,-270,0
16,771,-610,18,-68,-16,-103,0
17,723,-600,-25,1,3,66,0
18,767,-554,-50,32,42,209,0
19,946,-522,-23,31,80,344,0
20,1218,-380,8,3,126,459,0
21,1563,-259,55,-13,189,545,0
22,1981,-167,141,-52,208,614,0
23,2315,-9,237,-106,166,652,0
24,2500,214,317,-159,67,653,0
25,2406,560,333,-181,-26,634,0
26,2017,743,274,-172,-119,562,0
27,1546,855,219,-168,-189,410,0
28,1088,873,178,-143,-216,230,0
29,827,800,73,-92,-131,85,0
30,775,696,-11,-19,-37,19,0
31,845,647,-78,41,17,-20,0
32,922,625,-83,83,25,-89,0
33,1127,597,-96,116,60,-180,0
34,1425,554,-33,145,67,-269,0
35,1719,572,56,175,75,-354,0
36,2088,700,108,238,122,-435,0
37,2651,639,87,186,60,-589,0
38,2707,408,294,155,-182,-826,0
39,2464,-91,379,87,-233,-919,0
40,2035,-379,341,25,-198,-814,0
41,1650,-526,241,-5,-141,-636,0
42,1296,-692,104,-30,-128,-489,0
43,963,-932,31,-105,-130,-342,0
44,694,-1006,40,-216,-106,-167,0
45,589,-802,10,-235,-27,41,0
46,770,-632,-89,-208,50,223,0
47,1010,-362,-40,-154,0,372,0
48,1270,-107,35,-83,0,495,0
49,1653,-16,170,-23,21,615,0
50,2056,150,326,16,46,707,0
51,2402,294,431,58,74,800,0
52,2546,363,445,84,64,801,0
53,2439,373,341,50,94,697,0
54,2352,356,113,-80,125,591,0
55,2023,441,125,-339,-36,462,0
56,1422,687,310,-591,-258,217,0
57,910,1015,352,-584,-309,-17,0
58,688,1082,348,-389,-221,-127,0
59,604,946,289,-131,-132,-120,0
60,592,805,262,38,-36,-107,0
1,1205,-571,-302,-3,-696,149,0
2,868,-42,-114,-287,-284,-32,0
3,1182,24,99,-374,-346,-133,0
4,938,-163,317,-524,-509,-267,0
5,685,-99,362,-542,-412,-185,0
6,651,71,404,-501,-264,-2,0
7,751,364,341,-413,-181,65,0
8,803,386,330,-293,-145,68,0
9,868,237,397,-245,-148,87,0
10,1940,-759,-2504,-1042,1002,-364,0
11,1609,1389,16,174,-240,-18,0
12,904,270,281,-71,-72,-46,0
13,955,201,326,-81,-56,-32,0
14,1030,199,320,-96,-50,2,0
15,1119,350,186,-44,-88,32,0
16,1112,427,14,73,-231,66,0
17,852,389,87,203,-229,135,0
18,557,402,130,251,-117,111,0
19,309,328,299,253,206,21,0
20,565,361,185,173,658,-66,0
21,1151,-820,-1331,-127,836,-33,0
22,3087,1230,-3454,-505,935,-327,0
25,1460,190,187,194,126,-16,0
26,1236,204,55,105,-260,49,0
27,836,353,-47,25,-121,37,0
28,924,377,-106,-53,0,-32,0
29,891,325,-106,-100,-87,-83,0
30,794,306,-40,-115,-114,-97,0
31,674,331,-87,-99,-134,-101,0
32,700,172,-322,-62,-23,-92,0
33,1249,-287,-195,-225,66,-71,0
34,1537,-187,221,-457,-290,-60,0
35,1188,137,465,-539,-440,15,0
36,950,450,638,-504,-394,94,0
37,617,810,643,-368,-324,124,0
38,490,1100,584,-94,-49,69,0
39,568,1287,458,308,140,-38,0
40,851,841,414,672,340,-120,0
41,1044,387,346,819,286,-147,0
42,1091,-63,110,780,303,-134,0
43,1330,-548,-255,518,303,-51,0
44,1223,-620,-474,117,77,29,0
45,1154,-302,-492,-279,0,57,0
46,1243,-80,-182,-588,-160,-30,0
47,1106,-170,308,-875,-351,-146,0
48,865,-151,817,-1126,-429,-212,0
49,500,238,1077,-1162,-438,-173,0
50,219,1061,861,-760,-331,-49,0
51,204,1586,600,13,43,90,0
52,752,1135,614,795,510,61,0
53,1499,203,755,1178,721,141,0
54,1623,-568,480,1103,361,292,0
55,1096,-531,26,815,238,382,0
56,1151,-357,-314,452,436,365,0
57,1277,0,-433,106,337,256,0
58,1091,371,-410,-38,132,131,0
59,923,498,-330,-36,73,72,0
60,882,587,-294,62,76,63,0
1,2213,194,279,516,864,677,0
2,3287,682,574,751,1057,976,0
3,3217,-2,-175,946,693,1344,0
4,2295,967,-1041,526,-181,1027,0
5,1912,1091,-1210,385,-278,374,0
8,1112,-1444,1331,-1436,-954,-1503,0
9,598,0,924,-1545,-304,-975,0
10,1018,143,53,-165,206,351,0
11,1477,248,72,-48,293,461,0
12,1621,-68,267,-86,-443,-324,0
13,1714,-330,262,-110,-344,-230,0
14,1529,-452,281,-293,-380,-154,0
15,1159,-258,349,-489,-379,-122,0
16,719,-58,396,-571,-416,-128,0
17,315,156,383,-518,-327,-99,0
18,112,362,294,-317,-107,-29,0
19,143,355,122,-47,130,35,0
20,341,82,9,144,213,79,0
21,458,-17,78,224,200,134,0
22,719,85,208,439,270,240,0
23,1038,-345,333,538,345,436,0
24,1511,-313,260,416,579,589,0
25,2208,-58,216,269,805,658,0
26,2560,271,1,199,734,642,0
27,2251,552,-354,183,475,593,0
28,1766,989,-623,215,162,488,0
29,1359,1118,-694,307,-40,305,0
30,1462,695,-497,253,-190,39,0
31,1811,273,-122,46,-414,-216,0
32,2043,-39,279,-187,-576,-425,0
33,1962,-167,522,-397,-639,-540,0
34,1672,-103,569,-528,-521,-529,0
35,1503,101,531,-587,-332,-530,0
36,1403,322,411,-506,-188,-556,0
37,1344,362,236,-314,-76,-539,0
38,1360,202,110,-96,-23,-475,0
39,1272,-68,53,64,-78,-372,0
40,1000,-355,19,132,-172,-246,0
41,641,-574,15,113,-249,-117,0
42,318,-644,54,42,-247,3,0
43,185,-491,99,-18,-111,155,0
44,340,-224,110,-47,26,287,0
45,524,0,114,-31,95,374,0
46,756,99,131,0,171,427,0
47,1064,118,125,32,246,470,0
48,1514,147,118,62,382,538,0
49,2129,305,172,103,541,626,0
50,2750,598,178,185,585,724,0
51,2701,905,15,248,226,783,0
52,1789,1456,-152,235,-165,630,0
53,1154,1408,-371,204,-227,238,0
54,1092,739,-322,27,-95,-275,0
55,1370,170,-158,-184,-96,-552,0
56,1322,35,-91,-379,-162,-605,0
57,1442,270,26,-375,-71,-510,0
58,1711,433,121,-232,-137,-440,0
59,1704,314,180,-74,-230,-393,0
60,1623,22,252,-38,-281,-365,0
1,619,-226,-139,-72,13,87,0
2,694,-176,-120,-69,5,176,0
3,825,-125,-70,-92,0,261,0
4,979,-36,-36,-128,3,329,0
5,1132,18,-101,-145,26,378,0
6,1454,-49,-237,-165,122,426,0
7,2154,-198,-168,-274,157,491,0
8,2885,-175,538,-573,-205,492,0
9,2807,68,1468,-965,-652,409,0
10,1782,751,1807,-1193,-766,285,0
11,848,1623,1320,-890,-497,288,0
12,990,245,-13,-274,-36,56,0
13,1068,507,133,-208,-54,83,0
14,1196,881,182,4,73,118,0
15,1249,1099,200,358,251,118,0
16,1458,826,196,670,481,22,0
17,1680,222,179,841,388,-54,0
18,1434,-503,-75,688,157,-61,0
19,1033,-706,-290,343,-39,-50,0
20,793,-404,-295,34,-65,-77,0
21,648,-256,-256,-152,-75,-114,0
22,591,-189,-200,-231,-42,-101,0
23,808,-5,-170,-230,23,-63,0
24,1121,91,-50,-170,7,-13,0
25,1168,141,104,-96,-137,22,0
26,1044,175,160,-15,-139,52,0
27,968,155,145,56,-56,89,0
28,890,127,75,79,31,116,0
29,881,141,-3,55,66,116,0
30,784,179,-68,28,43,101,0
31,674,177,-102,7,22,87,0
32,562,172,-101,-16,-3,83,0
33,719,199,-106,-28,58,100,0
34,904,282,-111,-32,13,125,0
35,968,306,-133,-45,4,133,0
36,1115,296,-153,-105,-27,113,0
37,1218,204,-117,-227,-88,75,0
38,1308,21,168,-474,-178,22,0
39,1241,78,630,-781,-289,-55,0
40,923,420,967,-937,-259,-129,0
41,707,1196,780,-704,-10,-100,0
42,1128,1514,486,-112,443,-69,0
43,1692,1146,475,456,593,-145,0
44,1857,618,568,839,427,-158,0
45,1706,200,562,997,313,-144,0
46,1540,-194,377,920,180,-161,0
47,1295,-404,103,651,29,-188,0
48,989,-461,-110,311,-47,-230,0
49,746,-383,-216,12,-33,-257,0
50,606,-260,-318,-149,14,-249,0
51,595,-273,-437,-206,78,-190,0
52,725,-348,-482,-262,59,-105,0
53,933,-406,-320,-365,-113,-25,0
54,1139,-594,62,-620,-242,72,0
55,1642,-930,1295,-1217,-253,267,0
56,1687,268,3691,-1743,-125,-110,0
57,127,1502,3238,-1571,-677,-473,0
58,8,2177,1785,-232,-560,-281,0
59,393,786,1630,983,1020,10,0
60,1164,-114,1468,1252,874,187,0
1,1062,127,-21,-345,-16,-223,0
2,1230,139,170,-348,-45,-187,0
3,1237,255,338,-301,-112,-121,0
4,1212,860,541,-50,-106,-64,0
5,772,1527,919,569,-77,-28,0
6,830,731,1042,1115,494,-124,0
7,1469,-173,797,1138,520,-139,0
8,1507,-95,761,-903,-457,173,0
9,1342,85,1034,-1019,-507,127,0
12,1079,-51,266,-769,-389,-186,0
13,1146,-204,567,-861,-445,-158,0
14,1177,-239,998,-996,-492,-116,0
15,1074,121,1289,-997,-464,-37,0
16,805,994,1104,-652,-394,118,0
17,407,1790,721,55,-44,280,0
18,588,1677,564,774,646,178,0
19,1450,950,773,1316,1107,38,0
20,2052,-860,420,1298,669,194,0
21,1176,-795,-262,780,-206,181,0
22,916,45,-238,493,28,201,0
23,1309,708,284,595,-53,180,0
24,1214,424,581,668,-418,-12,0
25,941,-169,460,589,-323,-159,0
26,608,-494,173,331,-137,-159,0
27,568,-360,-96,54,205,-72,0
28,766,-111,-222,-105,261,0,0
29,727,124,-329,-171,131,17,0
30,703,244,-406,-156,69,8,0
31,784,227,-473,-122,-14,-4,0
32,945,31,-429,-144,-120,0,0
33,1216,-174,-89,-307,-298,-18,0
34,1523,-338,505,-567,-468,-61,0
35,1579,-438,1123,-874,-590,-71,0
36,1227,-58,1499,-1041,-486,96,0
37,1076,568,1660,-987,-264,225,0
38,601,1326,1339,-599,-129,215,0
39,487,1674,863,61,335,109,0
40,1300,1207,868,693,944,-70,0
41,2025,519,1016,1032,664,-142,0
42,1813,14,901,1092,328,-176,0
43,1720,-223,631,951,228,-187,0
44,1453,-333,245,713,154,-233,0
45,1255,-594,-187,421,203,-232,0
46,1089,-784,-497,53,194,-169,0
47,1050,-788,-668,-317,202,-93,0
48,1137,-394,-409,-643,32,-107,0
49,974,-34,-79,-757,-314,-170,0
50,879,231,181,-698,-378,-190,0
51,964,480,229,-476,-326,-72,0
52,986,649,299,-164,-265,93,0
53,1061,755,334,172,-123,175,0
54,1188,564,318,428,16,220,0
55,1234,330,176,482,65,235,0
56,1154,160,-4,382,58,223,0
57,1061,118,-142,177,3,184,0
58,904,153,-438,41,19,96,0
59,1389,-519,-580,-225,255,86,0
60,1683,-571,-38,-766,-180,-50,0
1,1070,-162,102,-619,-381,82,0
2,974,-311,335,-743,-488,90,0
3,1068,-474,857,-915,-524,90,0
4,1457,-41,1242,-937,-560,159,0
5,1580,801,1285,-660,-576,414,0
6,1665,1873,1176,-136,-407,519,0
7,1278,2311,1026,552,-196,535,0
8,1244,1502,765,859,2,223,0
9,1449,497,630,718,-140,-279,0
10,1263,-220,397,385,-231,-487,0
11,741,-534,212,-11,-145,-375,0
12,1281,898,387,864,401,154,0
13,1419,585,416,1040,379,125,0
14,1594,-10,254,1044,311,114,0
15,1675,-542,-117,766,91,158,0
16,1400,-396,-259,569,-75,153,0
17,1155,-266,-138,376,-153,47,0
18,923,-210,-92,194,-167,-13,0
19,868,-37,-16,81,-118,-60,0
20,826,87,93,63,-133,-114,0
21,798,-41,211,83,-86,-123,0
22,819,-246,373,19,-80,-66,0
23,364,-3,461,-29,-119,18,0
24,139,394,294,121,207,118,0
25,551,411,44,379,637,154,0
26,1026,162,-159,549,708,194,0
27,1235,-291,-471,513,526,317,0
28,1314,-234,-713,339,217,422,0
29,1458,220,-661,185,-82,405,0
30,1543,293,-313,11,-434,266,0
31,1827,-99,110,-295,-555,25,0
32,2220,-546,899,-795,-628,-212,0
33,1651,-584,1581,-1316,-695,-385,0
34,856,-17,1829,-1579,-379,-368,0
35,576,888,1467,-1409,-54,-323,0
36,645,1501,801,-817,306,-207,0
37,1123,1474,375,-31,668,-188,0
38,1466,846,372,610,586,-172,0
39,1424,210,439,950,384,-114,0
40,1306,-271,409,1005,240,-28,0
41,1162,-463,228,825,83,14,0
42,942,-431,-52,545,60,-23,0
43,1086,-746,-665,279,306,-39,0
44,1279,-1006,-602,-226,332,92,0
45,1207,14,-225,-769,-98,-36,0
46,982,377,56,-815,-413,-229,0
47,777,4,346,-890,-447,-389,0
48,753,-157,511,-956,-373,-368,0
49,880,73,544,-898,-296,-191,0
50,1189,396,510,-746,-288,-50,0
51,1225,446,618,-591,-466,-44,0
52,1077,499,789,-454,-520,-55,0
53,954,622,891,-217,-506,-26,0
54,801,564,886,17,-416,23,0
55,765,431,807,144,-262,64,0
56,968,368,666,178,-109,83,0
57,1254,419,566,200,-52,110,0
58,1437,691,581,276,-45,163,0
59,1403,884,604,445,-82,195,0
60,1294,825,609,574,-74,179,0
1,1884,1002,1683,-981,-422,363,0
2,1468,1714,1341,-576,-295,322,0
3,1165,1767,924,-35,-5,156,0
4,1400,1170,703,329,166,-41,0
5,1421,566,595,411,84,-129,0
6,1124,159,428,264,0,-153,0
7,781,168,303,56,36,-128,0
8,681,404,214,-21,147,-88,0
9,489,163,-105,183,51,63,0
10,532,223,-142,194,75,77,0
11,706,196,-223,234,115,103,0
12,1741,138,380,801,220,-148,0
13,1271,-168,381,895,-31,-59,0
14,944,-526,188,764,-66,-39,0
15,716,-746,-25,459,-81,-31,0
16,562,-728,-149,81,-21,-15,0
17,543,-463,-149,-231,64,0,0
18,577,-232,-135,-380,97,33,0
19,664,-69,-171,-399,113,93,0
20,838,29,-219,-334,108,169,0
21,1063,27,-239,-253,41,250,0
24,1959,93,518,-576,-218,399,0
25,2178,411,810,-760,-250,371,0
26,1908,949,914,-758,-312,319,0
27,1290,1405,781,-493,-319,196,0
28,827,1352,525,-85,-163,49,0
29,949,844,347,220,82,-35,0
30,1015,401,264,313,11,-60,0
31,880,176,205,273,-11,-36,0
32,818,164,126,205,11,14,0
33,805,227,48,144,48,50,0
34,957,339,19,101,101,72,0
35,1183,554,116,120,91,68,0
36,1156,723,169,243,80,39,0
37,1263,542,146,381,174,-13,0
38,1137,254,137,399,78,-68,0
39,866,160,57,362,112,-78,0
40,804,144,-13,329,174,-78,0
41,737,102,-65,313,168,-73,0
42,621,48,-141,314,150,-57,0
43,544,-49,-216,292,157,-25,0
44,538,-39,-307,253,137,18,0
45,609,-30,-385,226,123,80,0
46,898,-34,-415,179,96,147,0
47,1277,47,-374,114,12,220,0
48,1678,193,-195,22,-94,272,0
49,1989,303,105,-156,-310,276,0
50,1844,340,498,-453,-543,171,0
51,1354,398,916,-768,-510,-33,0
52,759,728,1026,-931,-262,-272,0
53,900,1107,775,-765,280,-412,0
54,1732,1208,540,-357,660,-497,0
55,2343,936,427,110,564,-492,0
56,2257,462,412,457,292,-398,0
57,1813,143,411,618,75,-297,0
58,1387,2,326,627,-27,-254,0
59,1086,-212,141,511,-36,-271,0
60,890,-452,-45,293,-19,-272,0
1,978,396,69,108,59,22,0
2,996,359,89,154,65,19,0
3,958,329,63,189,81,8,0
4,996,234,-48,198,123,1,0
5,1024,172,-65,166,99,6,0
6,942,267,-32,141,67,6,0
7,918,269,35,144,83,5,0
8,927,340,290,117,26,11,0
9,640,671,555,211,-1,-53,0
10,236,423,263,441,243,-121,0
11,633,-1777,-1057,361,868,-103,0
12,1212,212,269,9,420,99,0
13,1049,413,331,-100,-146,-31,0
14,756,265,314,-7,42,12,0
15,996,161,314,-58,143,36,0
16,960,247,389,-62,11,36,0
17,925,343,533,-10,79,61,0
18,1023,456,659,118,132,89,0
19,1156,751,706,388,156,109,0
20,1223,745,836,758,195,131,0
21,1218,551,922,998,154,136,0
22,1155,301,805,1042,122,72,0
23,1142,0,497,870,65,-27,0
24,1025,-247,180,584,31,-62,0
25,919,-267,-20,290,26,-27,0
26,834,-154,-151,66,16,12,0
27,791,-46,-232,-84,9,53,0
28,855,30,-265,-184,0,100,0
29,926,148,-170,-261,-106,119,0
30,887,199,8,-348,-244,111,0
31,932,153,240,-463,-293,94,0
32,987,153,501,-593,-328,64,0
33,857,291,650,-651,-319,63,0
34,836,463,696,-622,-179,117,0
35,898,820,647,-488,-90,112,0
36,829,1123,473,-177,-38,73,0
37,849,1099,357,206,63,45,0
38,902,843,323,451,67,15,0
39,876,592,276,526,44,-19,0
40,916,373,183,469,46,-51,0
41,949,251,68,329,41,-74,0
42,969,218,0,171,41,-81,0
43,964,282,-33,46,36,-80,0
44,963,383,-28,-8,31,-83,0
45,968,445,-12,3,28,-88,0
46,978,419,-3,43,28,-86,0
47,975,376,0,72,24,-86,0
48,967,324,0,77,23,-85,0
49,948,296,1,68,27,-82,0
50,971,278,-30,60,23,-76,0
51,900,316,2,56,-5,-67,0
52,888,297,-31,84,47,-52,0
53,920,261,-66,91,34,-33,0
54,871,267,-109,90,42,-16,0
55,908,241,-143,77,60,-3,0
56,924,228,-170,47,37,14,0
57,916,252,-161,10,22,30,0
58,920,283,-145,-20,13,38,0
59,943,320,-122,-33,2,43,0
60,952,348,-76,-27,-2,42,0
1,780,204,267,27,-19,-205,0
2,711,141,225,27,16,-150,0
3,643,166,165,48,39,-80,0
4,685,211,64,112,42,-10,0
5,797,238,-11,204,-26,39,0
6,863,243,-64,347,-80,89,0
7,930,57,-39,434,-8,183,0
8,772,132,214,379,12,224,0
9,629,113,346,242,349,180,0
10,1168,168,-152,13,591,104,0
11,1837,1829,-3922,375,-10,-175,0
12,1182,198,-82,-89,-72,202,0
13,1121,305,-80,-208,-131,218,0
14,1022,350,44,-384,-129,192,0
15,955,560,284,-542,-181,81,0
16,843,809,249,-490,-80,-30,0
17,1084,763,155,-281,69,-82,0
18,1151,612,78,-62,11,-72,0
19,1030,441,76,89,-17,-25,0
20,831,364,41,150,-37,7,0
21,684,300,-54,164,25,23,0
22,660,326,-123,142,52,42,0
23,726,475,-175,190,96,69,0
24,915,397,-209,234,125,90,0
25,1073,327,-232,189,64,101,0
26,1204,361,-212,85,30,93,0
27,1273,455,-162,-29,-24,57,0
28,1063,566,-112,-115,-85,-4,0
29,898,557,-77,-161,-66,-88,0
30,891,464,-79,-190,-34,-158,0
31,984,376,-64,-202,-32,-198,0
32,1080,221,-49,-191,-57,-198,0
33,1053,117,-25,-152,-89,-106,0
34,917,141,17,-93,-104,-49,0
35,691,86,17,-64,-90,-8,0
36,589,86,-47,-75,0,31,0
37,642,166,-124,-93,41,67,0
38,717,255,-157,-79,44,100,0
39,840,297,-178,-36,48,137,0
40,1102,286,-148,-1,75,177,0
41,1314,399,-100,10,48,222,0
42,1081,627,-112,31,-12,242,0
43,963,757,-113,48,20,189,0
44,958,773,-87,62,-3,84,0
45,1046,656,-22,74,-5,-1,0
46,1088,566,60,82,-36,-44,0
47,998,504,102,88,-35,-72,0
48,920,412,73,80,-8,-89,0
49,954,312,1,71,25,-75,0
50,1088,267,-67,97,20,-51,0
51,1108,190,-66,85,-7,-50,0
52,1124,251,-64,10,-6,-52,0
53,1142,352,-61,-43,-21,-73,0
54,1144,405,-40,-82,-27,-108,0
55,1140,394,-28,-111,-39,-146,0
56,1087,411,-29,-116,-44,-179,0
57,1047,404,-33,-92,-42,-208,0
58,1020,323,-33,-57,-48,-232,0
59,1032,142,-26,-36,-51,-234,0
60,947,-99,-33,-52,-93,-181,0
1,620,435,-111,-132,145,189,0
2,765,333,-111,-73,87,156,0
3,859,251,-26,-96,12,142,0
4,888,286,89,-141,-36,176,0
5,931,483,93,-138,-18,203,0
6,1004,605,35,-102,-54,158,0
7,1001,503,82,-81,-57,119,0
8,1004,356,104,-118,-12,159,0
9,970,629,119,-161,49,209,0
10,1723,3922,-1297,171,-584,-430,0
11,-37,-175,-333,522,-159,75,0
12,856,368,142,51,98,34,0
13,1032,408,114,161,143,58,0
14,1214,461,85,317,189,114,0
15,800,586,28,470,114,164,0
16,643,562,-100,585,237,128,0
17,946,1130,-1267,491,201,-28,0
18,686,-570,-2068,438,285,-91,0
19,1512,-341,-382,-480,456,-54,0
20,1537,552,-74,-451,-325,-203,0
21,531,652,-170,-321,-376,-73,0
22,687,469,-87,-47,99,-19,0
23,1102,203,33,5,-113,-38,0
24,981,60,61,-38,-178,-13,0
25,1034,140,89,-50,-68,95,0
26,949,352,30,-46,-44,174,0
27,971,453,-14,-67,-21,178,0
28,904,517,-11,-123,-57,131,0
29,855,613,35,-158,-69,55,0
30,835,583,109,-151,-64,-12,0
31,890,562,144,-111,-42,-56,0
32,926,427,152,-45,-30,-60,0
33,936,279,163,-37,-22,-24,0
34,943,316,191,-61,-9,20,0
35,890,428,216,-59,-1,51,0
36,807,518,207,-31,34,54,0
37,775,584,154,22,91,35,0
38,836,600,54,106,150,12,0
39,909,541,-27,197,169,-3,0
40,965,438,-97,255,178,-10,0
41,1012,362,-213,271,166,-8,0
42,1009,237,-282,234,132,-2,0
43,1069,225,-474,119,108,-4,0
44,1075,79,-672,-7,-102,17,0
45,869,255,-211,-112,-21,-10,0
46,1040,309,-60,-162,-2,-12,0
47,1027,460,-101,-143,-18,-3,0
48,1093,508,-89,-67,3,-2,0
49,998,477,-56,-6,-52,-12,0
50,901,416,-8,14,-47,-30,0
51,892,373,-2,22,-18,-46,0
52,931,316,-40,43,0,-41,0
53,943,269,-71,61,-1,-18,0
54,905,232,-81,46,-24,5,0
55,835,243,-65,0,-44,17,0
56,800,296,-45,-39,-41,23,0
57,812,328,-38,-58,-41,28,0
58,860,347,-18,-67,-43,31,0
59,1123,287,13,-83,-15,41,0
60,1219,303,84,-117,-72,70,0
1,753,-30,-49,-107,73,-65,0
2,781,87,31,-134,44,-7,0
3,949,284,89,-66,34,32,0
4,1161,683,119,236,-28,89,0
5,996,667,136,658,-179,133,0
6,830,369,158,913,-161,145,0
7,180,-178,640,846,176,10,0
8,705,-261,560,524,970,-80,0
9,1709,-74,710,396,1390,-81,0
10,2186,-464,431,-17,911,-194,0
11,3922,-98,-3922,-841,246,-349,0
12,898,226,166,-186,-67,10,0
13,868,272,179,-194,-53,22,0
14,886,291,133,-178,-32,36,0
15,951,275,70,-166,-14,53,0
16,1006,291,31,-170,-31,69,0
17,1019,325,30,-177,-52,76,0
18,1019,340,49,-187,-71,71,0
19,997,340,73,-209,-78,60,0
20,979,353,87,-236,-79,46,0
21,966,377,90,-254,-83,28,0
22,954,400,113,-258,-78,24,0
23,951,431,119,-222,-70,29,0
26,921,481,147,-94,-51,44,0
27,914,493,148,-55,-30,41,0
28,925,490,132,-27,-12,32,0
29,945,497,127,-7,4,16,0
30,964,517,81,27,19,5,0
31,980,487,42,59,25,-6,0
32,979,429,17,68,18,-22,0
33,977,375,10,54,11,-35,0
34,959,353,28,27,2,-43,0
35,961,358,53,14,8,-45,0
36,987,363,66,21,16,-41,0
37,1021,389,96,45,18,-34,0
38,999,402,102,69,28,-33,0
39,989,388,89,86,39,-43,0
40,968,358,84,75,46,-58,0
41,952,392,58,85,54,-65,0
42,923,384,16,120,45,-72,0
43,903,319,19,131,57,-81,0
